subject PestNr Step_Size_OnTrial Response_Interval Pest_Interval Condition block trial velH velH_Pest Reaction_Time velH_Subject Start_Above Response_MotionEstimation
lala 1 1.2 second second 17 1 1 -8 -10.64 2.11999654769897 0.25 1 1
lala 1 1.2 first first 1 1 2 -8 -10.64 1.07999730110168 -0.25 1 1
lala 1 1.2 first first 9 1 3 -8 -10.64 2.25999641418457 0 1 1
lala 1 1.2 second second 18 1 4 -6.6 -4.356 3.27999544143677 0.25 0 1
lala 1 1.2 first second 16 1 5 -8 -5.28 1.95999670028687 0.25 0 -1
lala 2 1.2 first second 16 1 6 -8 -6.48 5.83999872207642 0.25 0 -1
lala 1 1.2 second second 19 1 7 -6.6 -8.778 1.25999712944031 0.25 1 1
lala 2 1.2 second first 18 1 8 -6.6 -3.156 0.919997453689575 0.25 0 -1
lala 2 1.2 second second 9 1 9 -8 -9.440001 1.03999733924866 0 1 1
lala 1 1.2 first first 5 1 10 6.6 8.778 0.979997396469116 -0.25 1 1
lala 1 1.2 second second 13 1 11 6.6 8.778 2.47999620437622 0 1 1
lala 1 1.2 second first 0 1 12 -8 -5.28 6.00000238418579 -0.25 0 -1
lala 3 1.2 second first 9 1 13 -8 -8.240001 32.2206015586853 0 1 -1
lala 2 1.2 second first 5 1 14 6.6 7.578 10.5401062965393 -0.25 1 -1
lala 1 1.2 first second 11 1 15 -6.6 -8.778 1.0999972820282 0 1 -1
lala 4 1.2 first first 9 1 16 -8 -9.440001 0.919997453689575 0 1 1
lala 2 1.2 second second 1 1 17 -8 -9.440001 0.939997434616089 -0.25 1 1
lala 1 1.2 second second 7 1 18 8 10.64 1.97999668121338 -0.25 1 1
lala 1 1.2 second first 10 1 19 -6.6 -4.356 3.0399956703186 0 0 -1
lala 3 1.2 second second 1 1 20 -8 -8.240001 1.79999685287476 -0.25 1 1
lala 2 1.2 first first 11 1 21 -6.6 -9.978 0.919997453689575 0 1 1
lala 2 1.2 first first 7 1 22 8 9.440001 1.69999694824219 -0.25 1 1
lala 3 1.2 second first 7 1 23 8 8.240001 4.69999408721924 -0.25 1 -1
lala 2 1.2 second second 17 1 24 -8 -9.440001 1.63999700546265 0.25 1 1
lala 1 1.2 first second 6 1 25 8 5.28 0.799997568130493 -0.25 0 -1
lala 1 1.2 second first 22 1 26 8 5.28 4.67999410629272 0.25 0 -1
lala 1 1.2 second first 12 1 27 6.6 4.356 0.899997472763062 0 0 -1
lala 1 1.2 first first 23 1 28 8 10.64 3.49999523162842 0.25 1 1
lala 2 1.2 second second 23 1 29 8 9.440001 1.21999716758728 0.25 1 1
lala 4 1.2 second first 1 1 30 -8 -7.040001 4.35999441146851 -0.25 1 -1
lala 2 1.2 first first 0 1 31 -8 -6.48 3.41999530792236 -0.25 0 1
lala 2 1.2 second first 6 1 32 8 6.48 1.65999698638916 -0.25 0 -1
lala 2 1.2 first first 13 1 33 6.6 7.578 0.679997682571411 0 1 1
lala 3 1.2 first first 13 1 34 6.6 6.378 1.7199969291687 0 1 1
lala 3 1.2 first second 16 1 35 -8 -7.68 1.65999698638916 0.25 0 -1
lala 4 1.2 second first 16 1 36 -8 -8.88 1.93999671936035 0.25 0 -1
lala 2 1.2 first first 12 1 37 6.6 5.556 6.58001565933228 0 0 1
lala 3 1.2 second first 0 1 38 -8 -5.280001 0.959997415542603 -0.25 0 -1
lala 5 0.6 second second 9 1 39 -8 -8.84 1.75999689102173 0 1 1
lala 2 1.2 first first 19 1 40 -6.6 -7.578 3.95999479293823 0.25 1 1
lala 6 0.6 second second 9 1 41 -8 -8.24 1.0999972820282 0 1 1
lala 4 1.2 second second 0 1 42 -8 -6.48 2.57999610900879 -0.25 0 1
lala 1 1.2 second second 15 1 43 8 10.64 0.919997453689575 0 1 1
lala 1 1.2 second second 21 1 44 6.6 8.778 1.37999701499939 0.25 1 1
lala 1 1.2 second first 20 1 45 6.6 4.356 1.07999730110168 0.25 0 -1
lala 2 1.2 second first 20 1 46 6.6 5.556 3.05999565124512 0.25 0 -1
lala 5 0.6 first second 0 1 47 -8 -5.880001 1.35999703407288 -0.25 0 -1
lala 3 1.2 first second 18 1 48 -6.6 -4.356 0.799997568130493 0.25 0 -1
lala 2 1.2 second first 22 1 49 8 6.48 1.57999682426453 0.25 0 -1
lala 3 1.2 second first 22 1 50 8 7.68 4.17999458312988 0.25 0 -1
lala 5 2.4 second second 16 1 51 -8 -11.28 1.05999732017517 0.25 0 1
lala 2 1.2 first first 21 1 52 6.6 7.578 3.05999565124512 0.25 1 1
lala 6 0.3 second second 0 1 53 -8 -6.180001 3.65999507904053 -0.25 0 1
lala 3 1.2 first first 23 1 54 8 8.240001 1.15999722480774 0.25 1 1
lala 7 0.6 second second 9 1 55 -8 -7.64 3.97999477386475 0 1 1
lala 2 1.2 first first 15 1 56 8 9.440001 3.67999505996704 0 1 1
lala 1 1.2 second second 3 1 57 -6.6 -8.778 3.05999565124512 -0.25 1 1
lala 3 1.2 first first 21 1 58 6.6 6.378 2.09999656677246 0.25 1 1
lala 2 1.2 second second 10 1 59 -6.6 -5.556 1.8599967956543 0 0 1
lala 3 1.2 first second 10 1 60 -6.6 -4.356 3.87999486923218 0 0 -1
lala 1 1.2 first second 8 1 61 -8 -5.28 1.65999698638916 0 0 -1
lala 1 1.2 second first 4 1 62 6.6 4.356 0.99999737739563 -0.25 0 -1
lala 2 1.2 first first 3 1 63 -6.6 -7.578 2.11999654769897 -0.25 1 1
lala 3 1.2 first second 6 1 64 8 7.68 1.99999666213989 -0.25 0 -1
lala 6 1.2 first first 16 1 65 -8 -10.08 4.57999420166016 0.25 0 1
lala 2 1.2 second first 8 1 66 -8 -6.48 1.47999691963196 0 0 -1
lala 1 1.2 second second 14 1 67 8 5.28 3.87999486923218 0 0 1
lala 3 1.2 second second 11 1 68 -6.6 -8.778 0.779997587203979 0 1 1
lala 3 1.2 first second 17 1 69 -8 -8.240001 0.559997797012329 0.25 1 -1
lala 4 1.2 second first 17 1 70 -8 -9.440001 2.79999589920044 0.25 1 -1
lala 4 1.2 first second 22 1 71 8 8.88 2.69999599456787 0.25 0 -1
lala 3 1.2 first first 5 1 72 6.6 8.778 2.67999601364136 -0.25 1 1
lala 3 1.2 first first 15 1 73 8 8.240001 2.03999662399292 0 1 1
lala 4 1.2 second first 7 1 74 8 9.440001 6.74001932144165 -0.25 1 -1
lala 5 2.4 first first 22 1 75 8 11.28 0.819997549057007 0.25 0 1
lala 4 1.2 second first 13 1 76 6.6 5.178 3.53999519348145 0 1 -1
lala 4 1.2 second first 18 1 77 -6.6 -5.556 4.35999441146851 0.25 0 -1
lala 5 1.2 second second 17 1 78 -8 -10.64 1.15999722480774 0.25 1 1
lala 3 1.2 first second 12 1 79 6.6 4.356 0.679997682571411 0 0 -1
lala 3 1.2 first second 3 1 80 -6.6 -6.378 1.33999705314636 -0.25 1 -1
lala 3 1.2 first first 8 1 81 -8 -7.68 1.83999681472778 0 0 1
lala 8 1.2 first first 9 1 82 -8 -6.44 2.23999643325806 0 1 1
lala 5 1.2 first first 7 1 83 8 10.64 1.21999716758728 -0.25 1 1
lala 3 1.2 first first 19 1 84 -6.6 -6.378 3.97999477386475 0.25 1 1
lala 9 2.4 second first 9 1 85 -8 -4.039999 1.75999689102173 0 1 -1
lala 4 1.2 second second 15 1 86 8 7.040001 2.23999643325806 0 1 1
lala 5 2.4 second first 18 1 87 -6.6 -7.956 1.47999691963196 0.25 0 -1
lala 6 0.6 second second 17 1 88 -8 -10.04 1.11999726295471 0.25 1 1
lala 7 1.2 first first 16 1 89 -8 -8.880001 1.21999716758728 0.25 0 1
lala 6 4.8 second second 18 1 90 -6.6 -12.756 1.27999711036682 0.25 0 1
lala 4 1.2 first first 21 1 91 6.6 5.178 2.75999593734741 0.25 1 1
lala 7 2.4 first first 18 1 92 -6.6 -10.356 1.59999680519104 0.25 0 1
lala 4 1.2 second second 11 1 93 -6.6 -7.578 2.63999605178833 0 1 1
lala 10 1.2 first first 9 1 94 -8 -5.24 2.35999631881714 0 1 1
lala 7 0.15 first second 0 1 95 -8 -6.030001 1.11999726295471 -0.25 0 -1
lala 2 1.2 second first 4 1 96 6.6 5.556 1.03999733924866 -0.25 0 -1
lala 2 1.2 first second 14 1 97 8 4.08 1.19999718666077 0 0 -1
lala 8 1.2 first second 16 1 98 -8 -7.680001 3.11999559402466 0.25 0 -1
lala 4 1.2 second second 10 1 99 -6.6 -5.556 0.879997491836548 0 0 1
lala 3 1.2 second first 20 1 100 6.6 6.756 1.27999711036682 0.25 0 -1
lala 5 2.4 first second 15 1 101 8 4.640001 1.19999718666077 0 1 -1
lala 7 0.6 second second 17 1 102 -8 -9.44 1.69999694824219 0.25 1 1
lala 8 0.6 second second 17 1 103 -8 -8.839999 2.51999616622925 0.25 1 1
lala 9 0.6 second first 16 1 104 -8 -8.280002 2.85999584197998 0.25 0 -1
lala 4 1.2 first first 12 1 105 6.6 5.556 4.91999387741089 0 0 1
lala 5 0.6 second first 1 1 106 -8 -7.640001 5.57999324798584 -0.25 1 -1
lala 8 2.4 second first 18 1 107 -6.6 -7.956001 5.94000101089478 0.25 0 -1
lala 6 1.2 first first 22 1 108 8 10.08 1.67999696731567 0.25 0 1
lala 5 2.4 first first 11 1 109 -6.6 -5.178 1.91999673843384 0 1 1
lala 5 2.4 second first 21 1 110 6.6 2.778 0.819997549057007 0.25 1 -1
lala 8 0.075 second first 0 1 111 -8 -6.105 1.05999732017517 -0.25 0 -1
lala 4 1.2 second second 8 1 112 -8 -6.48 1.03999733924866 0 0 1
lala 9 0.075 second first 0 1 113 -8 -6.18 1.57999682426453 -0.25 0 -1
lala 6 0.6 second second 1 1 114 -8 -8.240001 0.959997415542603 -0.25 1 1
lala 10 0.6 second first 16 1 115 -8 -8.880002 5.19999361038208 0.25 0 -1
lala 7 0.3 second second 1 1 116 -8 -7.940001 4.11999464035034 -0.25 1 1
lala 4 1.2 second second 3 1 117 -6.6 -7.578 0.659997701644897 -0.25 1 1
lala 8 0.3 second second 1 1 118 -8 -7.64 0.359997987747192 -0.25 1 1
lala 11 0.6 second first 9 1 119 -8 -4.64 1.07999730110168 0 1 -1
lala 3 1.2 first second 14 1 120 8 5.28 2.37999629974365 0 0 -1
lala 4 1.2 second first 5 1 121 6.6 7.578 1.91999673843384 -0.25 1 -1
lala 4 1.2 first second 19 1 122 -6.6 -5.178 2.03999662399292 0.25 1 -1
lala 6 1.2 second second 15 1 123 8 5.840001 3.41999530792236 0 1 1
lala 6 4.8 second first 11 1 124 -6.6 -0.3779998 2.81999588012695 0 1 -1
lala 4 1.2 second first 23 1 125 8 7.040001 2.09999656677246 0.25 1 -1
lala 3 1.2 second first 4 1 126 6.6 6.756 2.61999607086182 -0.25 0 -1
lala 7 1.2 first first 22 1 127 8 8.880001 1.41999697685242 0.25 0 1
lala 5 0.6 first first 3 1 128 -6.6 -6.978 1.31999707221985 -0.25 1 1
lala 4 1.2 second first 14 1 129 8 6.48 1.17999720573425 0 0 -1
lala 9 1.2 second first 17 1 130 -8 -7.639999 1.37999701499939 0.25 1 -1
lala 9 1.2 first second 18 1 131 -6.6 -9.156001 2.11999654769897 0.25 0 -1
lala 11 0.6 second first 16 1 132 -8 -9.480002 4.71999406814575 0.25 0 -1
lala 6 0.6 first first 3 1 133 -6.6 -6.378 2.17999649047852 -0.25 1 1
lala 5 1.2 first first 8 1 134 -8 -5.280001 2.13999652862549 0 0 1
lala 12 0.3 second first 9 1 135 -8 -4.94 3.71999502182007 0 1 -1
lala 5 0.6 second first 19 1 136 -6.6 -5.778 2.7399959564209 0.25 1 -1
lala 7 2.4 second first 11 1 137 -6.6 -2.778 0.799997568130493 0 1 -1
lala 5 0.6 first first 5 1 138 6.6 8.178 1.51999688148499 -0.25 1 1
lala 5 2.4 second second 14 1 139 8 8.879999 0.759997606277466 0 0 1
lala 10 0.075 second first 0 1 140 -8 -6.255 0.959997415542603 -0.25 0 -1
lala 8 1.2 first second 22 1 141 8 7.680001 2.71999597549438 0.25 0 -1
lala 4 1.2 first first 20 1 142 6.6 7.955999 2.55999612808228 0.25 0 1
lala 6 1.2 first second 21 1 143 6.6 3.978 0.779997587203979 0.25 1 -1
lala 9 0.6 second second 22 1 144 8 8.280002 0.919997453689575 0.25 0 1
lala 5 0.6 first second 10 1 145 -6.6 -4.956 0.739997625350952 0 0 -1
lala 6 2.4 second first 8 1 146 -8 -2.880001 1.03999733924866 0 0 -1
lala 6 0.6 first first 7 1 147 8 10.04 1.55999684333801 -0.25 1 1
lala 6 0.6 first first 19 1 148 -6.6 -6.378 1.35999703407288 0.25 1 1
lala 7 0.6 second first 7 1 149 8 9.44 1.21999716758728 -0.25 1 -1
lala 7 0.6 first first 15 1 150 8 5.240001 4.07999467849731 0 1 1
lala 7 1.2 first first 8 1 151 -8 -4.080001 2.17999649047852 0 0 1
lala 10 1.2 second second 18 1 152 -6.6 -10.356 1.7199969291687 0.25 0 1
lala 8 0.6 first second 15 1 153 8 4.640001 3.09999561309814 0 1 -1
lala 7 1.2 first second 21 1 154 6.6 5.178 1.19999718666077 0.25 1 -1
lala 6 0.3 first first 5 1 155 6.6 7.878 2.65999603271484 -0.25 1 1
lala 6 1.2 first first 14 1 156 8 7.679999 1.23999714851379 0 0 1
lala 11 0.15 second first 0 1 157 -8 -6.405 2.75999593734741 -0.25 0 -1
lala 8 0.6 first second 8 1 158 -8 -3.480001 1.49999690055847 0 0 -1
lala 5 0.6 second first 23 1 159 8 7.640001 2.53999614715576 0.25 1 -1
lala 5 0.6 first first 13 1 160 6.6 5.778 3.33999538421631 0 1 1
lala 4 1.2 first second 6 1 161 8 8.88 1.21999716758728 -0.25 0 -1
lala 11 0.6 first second 18 1 162 -6.6 -9.756001 2.41999626159668 0.25 0 -1
lala 12 1.2 first first 16 1 163 -8 -10.68 3.27999544143677 0.25 0 1
lala 1 1.2 second first 2 1 164 -6.6 -4.356 1.33999705314636 -0.25 0 -1
lala 6 0.3 first second 10 1 165 -6.6 -5.256 1.59999680519104 0 0 -1
lala 13 0.6 first first 16 1 166 -8 -10.08 1.25999712944031 0.25 0 1
lala 10 0.3 first second 22 1 167 8 7.980001 3.09999561309814 0.25 0 -1
lala 6 0.6 second second 23 1 168 8 8.240001 1.13999724388123 0.25 1 1
lala 4 1.2 first second 4 1 169 6.6 7.955999 0.759997606277466 -0.25 0 -1
lala 7 1.2 second first 14 1 170 8 6.48 3.55999517440796 0 0 -1
lala 7 0.3 second first 19 1 171 -6.6 -6.078 5.079993724823 0.25 1 -1
lala 5 0.6 first first 12 1 172 6.6 4.956 4.17999458312988 0 0 1
lala 5 2.4 first first 6 1 173 8 11.28 1.19999718666077 -0.25 0 1
lala 9 0.3 first second 8 1 174 -8 -3.780001 0.899997472763062 0 0 -1
lala 7 0.3 second second 23 1 175 8 7.940001 0.939997434616089 0.25 1 1
lala 13 0.3 second second 9 1 176 -8 -5.24 1.25999712944031 0 1 1
lala 8 0.15 first first 19 1 177 -6.6 -6.228 1.11999726295471 0.25 1 1
lala 5 2.4 second second 4 1 178 6.6 10.356 1.03999733924866 -0.25 0 1
lala 6 0.3 second first 13 1 179 6.6 5.478 1.49999690055847 0 1 -1
lala 6 1.2 first first 6 1 180 8 10.08 0.859997510910034 -0.25 0 1
lala 9 0.3 first second 15 1 181 8 4.940001 1.81999683380127 0 1 -1
lala 7 0.3 first first 5 1 182 6.6 7.578 1.61999702453613 -0.25 1 1
lala 7 0.3 second first 10 1 183 -6.6 -5.556 1.65999698638916 0 0 -1
lala 2 1.2 second first 2 1 184 -6.6 -5.556 2.07999658584595 -0.25 0 -1
lala 8 0.3 second second 10 1 185 -6.6 -5.856 2.45999622344971 0 0 1
lala 14 0.6 first first 16 1 186 -8 -9.480001 2.43999624252319 0.25 0 1
lala 5 0.6 second first 20 1 187 6.6 7.355999 4.67999410629272 0.25 0 -1
lala 8 0.6 second first 14 1 188 8 7.079999 1.47999691963196 0 0 -1
lala 9 0.3 first first 1 1 189 -8 -7.34 1.43999695777893 -0.25 1 1
lala 8 0.3 first first 5 1 190 6.6 7.278 2.33999633789063 -0.25 1 1
lala 3 1.2 first first 2 1 191 -6.6 -6.756 3.05999565124512 -0.25 0 1
lala 7 0.6 second first 3 1 192 -6.6 -5.778 0.959997415542603 -0.25 1 -1
lala 8 2.4 first second 11 1 193 -6.6 -5.178 1.91999673843384 0 1 -1
lala 9 0.15 second second 10 1 194 -6.6 -5.706 2.17999649047852 0 0 1
lala 14 0.15 second first 9 1 195 -8 -5.09 0.679997682571411 0 1 -1
lala 4 1.2 first second 2 1 196 -6.6 -5.556 0.919997453689575 -0.25 0 -1
lala 9 0.6 first first 14 1 197 8 7.679999 1.33999705314636 0 0 1
lala 6 0.6 first first 12 1 198 6.6 4.356 1.69999694824219 0 0 1
lala 12 0.3 second first 0 1 199 -8 -6.705 1.37999701499939 -0.25 0 -1
lala 6 0.3 first second 20 1 200 6.6 7.656 2.81999588012695 0.25 0 -1
lala 6 1.2 first second 4 1 201 6.6 9.155999 2.47999620437622 -0.25 0 -1
lala 9 2.4 first first 11 1 202 -6.6 -7.578 2.43999624252319 0 1 1
lala 7 1.2 first first 6 1 203 8 8.880001 2.5999960899353 -0.25 0 1
lala 8 0.3 second first 23 1 204 8 7.64 0.899997472763062 0.25 1 -1
lala 7 0.15 second first 13 1 205 6.6 5.628 2.35999631881714 0 1 -1
lala 15 0.6 second first 16 1 206 -8 -8.880001 2.57999610900879 0.25 0 -1
lala 13 0.6 second second 0 1 207 -8 -7.305 1.83999681472778 -0.25 0 1
lala 10 0.6 second first 1 1 208 -8 -6.74 2.19999647140503 -0.25 1 -1
lala 8 0.15 second second 13 1 209 6.6 5.778 0.759997606277466 0 1 1
lala 8 1.2 second second 21 1 210 6.6 6.378 1.89999675750732 0.25 1 1
lala 9 0.6 second first 21 1 211 6.6 5.778 0.99999737739563 0.25 1 -1
lala 11 0.3 second first 1 1 212 -8 -7.04 1.51999688148499 -0.25 1 -1
lala 9 0.075 second second 13 1 213 6.6 5.703001 2.67999601364136 0 1 1
lala 10 1.2 first first 11 1 214 -6.6 -6.378 1.15999722480774 0 1 1
lala 11 0.15 second second 22 1 215 8 8.130001 1.49999690055847 0.25 0 1
lala 9 0.15 second second 23 1 216 8 7.79 2.19999647140503 0.25 1 1
lala 10 0.3 first first 14 1 217 8 7.379999 2.07999658584595 0 0 1
lala 7 0.6 first first 4 1 218 6.6 9.756 1.11999726295471 -0.25 0 1
lala 10 0.6 second second 17 1 219 -8 -8.24 1.25999712944031 0.25 1 1
lala 9 0.6 second first 5 1 220 6.6 6.678 0.899997472763062 -0.25 1 -1
lala 9 0.075 second first 19 1 221 -6.6 -6.153 2.09999656677246 0.25 1 -1
lala 8 0.3 second first 3 1 222 -6.6 -6.078001 2.01999664306641 -0.25 1 -1
lala 7 0.6 second first 12 1 223 6.6 3.756 0.899997472763062 0 0 -1
lala 10 0.3 first second 21 1 224 6.6 6.078001 0.739997625350952 0.25 1 -1
lala 8 0.3 second first 7 1 225 8 9.74 0.819997549057007 -0.25 1 -1
lala 8 0.3 second first 12 1 226 6.6 4.056 1.33999705314636 0 0 -1
lala 10 0.3 second first 5 1 227 6.6 6.978 0.879997491836548 -0.25 1 -1
lala 12 0.3 first second 1 1 228 -8 -7.340001 1.59999680519104 -0.25 1 -1
lala 11 0.3 second first 21 1 229 6.6 6.378001 0.739997625350952 0.25 1 -1
lala 11 0.3 second first 17 1 230 -8 -7.94 5.25999355316162 0.25 1 -1
lala 10 0.0375 first second 19 1 231 -6.6 -6.1905 0.899997472763062 0.25 1 -1
lala 10 0.15 first first 10 1 232 -6.6 -5.556 1.61999702453613 0 0 1
lala 8 0.3 second second 4 1 233 6.6 9.455999 0.99999737739563 -0.25 0 1
lala 9 0.3 second second 12 1 234 6.6 4.356 1.61999702453613 0 0 1
lala 12 0.15 first second 17 1 235 -8 -8.089999 0.839997529983521 0.25 1 -1
lala 13 0.15 first second 17 1 236 -8 -8.239999 1.01999735832214 0.25 1 -1
lala 10 0.15 second second 12 1 237 6.6 4.206 3.95999479293823 0 0 1
lala 12 0.3 first second 18 1 238 -6.6 -10.056 0.879997491836548 0.25 0 -1
lala 9 0.3 first second 4 1 239 6.6 9.155999 4.77999401092529 -0.25 0 -1
lala 16 0.3 first second 16 1 240 -8 -9.180001 2.43999624252319 0.25 0 -1
lala 7 0.3 second second 20 1 241 6.6 7.956 0.99999737739563 0.25 0 1
lala 5 0.6 first second 2 1 242 -6.6 -6.156 1.63999700546265 -0.25 0 -1
lala 10 0.075 first second 23 1 243 8 7.715001 1.3999969959259 0.25 1 -1
lala 17 0.3 second first 16 1 244 -8 -9.480001 1.65999698638916 0.25 0 -1
lala 11 0.3 second first 5 1 245 6.6 7.278 5.59999322891235 -0.25 1 -1
lala 9 0.3 second second 7 1 246 8 10.04 1.01999735832214 -0.25 1 1
lala 9 0.3 first second 3 1 247 -6.6 -6.378001 2.63999605178833 -0.25 1 -1
lala 10 0.3 first first 8 1 248 -8 -4.080001 1.01999735832214 0 0 1
lala 10 0.3 second first 15 1 249 8 5.240002 1.31999707221985 0 1 -1
lala 14 0.3 first second 0 1 250 -8 -7.005 0.819997549057007 -0.25 0 -1
lala 11 0.15 first first 12 1 251 6.6 4.056 1.41999697685242 0 0 1
lala 15 0.15 second first 0 1 252 -8 -7.155 1.41999697685242 -0.25 0 -1
lala 11 0.15 first second 8 1 253 -8 -3.930001 2.13999652862549 0 0 -1
lala 13 0.3 first first 18 1 254 -6.6 -10.356 5.09999370574951 0.25 0 1
lala 11 1.2 first first 11 1 255 -6.6 -5.178 1.05999732017517 0 1 1
lala 11 0.3 first first 14 1 256 8 7.079999 1.8599967956543 0 0 1
lala 12 0.15 second first 12 1 257 6.6 3.906 1.93999671936035 0 0 -1
lala 11 0.3 second first 15 1 258 8 5.540002 1.23999714851379 0 1 -1
lala 11 0.15 first second 10 1 259 -6.6 -5.406 1.23999714851379 0 0 -1
lala 13 0.3 first second 1 1 260 -8 -7.640001 1.13999724388123 -0.25 1 -1
lala 16 0.15 first first 0 1 261 -8 -7.305 3.13999557495117 -0.25 0 1
lala 12 1.2 first first 11 1 262 -6.6 -3.978 0.639997720718384 0 1 1
lala 12 0.3 first first 14 1 263 8 6.779999 1.59999680519104 0 0 1
lala 10 0.075 first second 13 1 264 6.6 5.628001 0.559997797012329 0 1 -1
lala 15 0.075 first first 9 1 265 -8 -5.165 0.959997415542603 0 1 1
lala 10 0.15 first first 4 1 266 6.6 9.305999 1.29999709129334 -0.25 0 1
lala 11 0.0375 first second 19 1 267 -6.6 -6.228 1.19999718666077 0.25 1 -1
lala 17 0.075 second second 0 1 268 -8 -7.23 3.93999481201172 -0.25 0 1
lala 14 0.15 second second 18 1 269 -6.6 -10.206 0.919997453689575 0.25 0 1
lala 13 0.075 first first 12 1 270 6.6 3.981 1.49999690055847 0 0 1
lala 12 0.3 first first 21 1 271 6.6 6.678001 1.49999690055847 0.25 1 1
lala 12 0.0375 first second 19 1 272 -6.6 -6.2655 1.25999712944031 0.25 1 -1
lala 14 0.15 first first 17 1 273 -8 -8.389998 1.47999691963196 0.25 1 1
lala 11 0.0375 second second 23 1 274 8 7.752501 1.21999716758728 0.25 1 1
lala 14 0.6 first first 1 1 275 -8 -8.240001 1.81999683380127 -0.25 1 1
lala 8 0.15 second first 20 1 276 6.6 7.806 2.07999658584595 0.25 0 -1
lala 18 0.075 second second 0 1 277 -8 -7.155001 0.699997663497925 -0.25 0 1
lala 15 0.15 first first 18 1 278 -6.6 -10.056 0.959997415542603 0.25 0 1
lala 18 0.3 first second 16 1 279 -8 -9.780002 0.899997472763062 0.25 0 -1
lala 13 0.075 second first 19 1 280 -6.6 -6.3405 2.53999614715576 0.25 1 -1
lala 8 1.2 first second 6 1 281 8 7.680001 0.99999737739563 -0.25 0 -1
lala 6 0.6 second first 2 1 282 -6.6 -6.756 1.69999694824219 -0.25 0 -1
lala 15 0.3 first second 1 1 283 -8 -7.940001 1.79999685287476 -0.25 1 -1
lala 9 0.6 first second 6 1 284 8 8.280002 2.159996509552 -0.25 0 -1
lala 10 0.3 first second 3 1 285 -6.6 -6.678001 2.55999612808228 -0.25 1 -1
lala 10 0.15 second second 7 1 286 8 9.89 3.49999523162842 -0.25 1 1
lala 19 0.075 first second 0 1 287 -8 -7.080001 4.07999467849731 -0.25 0 -1
lala 13 0.6 second second 14 1 288 8 6.179999 2.99999570846558 0 0 1
lala 12 0.075 first second 8 1 289 -8 -4.005001 1.13999724388123 0 0 -1
lala 14 1.2 second first 14 1 290 8 4.979999 0.899997472763062 0 0 -1
lala 12 0.3 first second 5 1 291 6.6 7.578001 2.09999656677246 -0.25 1 -1
lala 15 0.075 second first 17 1 292 -8 -8.314999 22.3803763389587 0.25 1 -1
lala 12 0.6 first first 15 1 293 8 6.140002 2.09999656677246 0 1 1
lala 16 0.15 second first 1 1 294 -8 -8.09 1.83999681472778 -0.25 1 -1
lala 11 0.6 second second 3 1 295 -6.6 -7.278001 1.15999722480774 -0.25 1 1
lala 12 0.01875 second first 23 1 296 8 7.73375 0.899997472763062 0.25 1 -1
lala 13 0.15 second first 21 1 297 6.6 6.528001 1.11999726295471 0.25 1 -1
lala 14 0.075 second second 21 1 298 6.6 6.603001 0.779997587203979 0.25 1 1
lala 7 0.6 second second 2 1 299 -6.6 -7.355999 1.07999730110168 -0.25 0 1
lala 12 0.075 second first 22 1 300 8 8.055001 2.91999578475952 0.25 0 -1
lala 13 0.009375 second first 23 1 301 8 7.743125 0.219998121261597 0.25 1 -1
lala 14 0.15 second first 19 1 302 -6.6 -6.4905 1.07999730110168 0.25 1 -1
lala 14 0.009375 second first 23 1 303 8 7.752501 0.579997777938843 0.25 1 -1
lala 17 0.15 first first 1 1 304 -8 -8.24 1.91999673843384 -0.25 1 1
lala 15 0.0375 second second 21 1 305 6.6 6.565501 0.639997720718384 0.25 1 1
lala 15 0.009375 second first 23 1 306 8 7.761876 0.419997930526733 0.25 1 -1
lala 20 0.0375 second first 0 1 307 -8 -7.117501 3.77999496459961 -0.25 0 -1
lala 16 0.0375 second second 21 1 308 6.6 6.528001 0.839997529983521 0.25 1 1
lala 13 0.6 first first 5 1 309 6.6 8.178 1.55999684333801 -0.25 1 1
lala 13 0.075 first second 8 1 310 -8 -4.08 1.23999714851379 0 0 -1
lala 12 0.075 second second 10 1 311 -6.6 -5.481 0.739997625350952 0 0 1
lala 13 2.4 second first 11 1 312 -6.6 -1.578 1.73999691009521 0 1 -1
lala 21 0.0375 second first 0 1 313 -8 -7.155001 2.63999605178833 -0.25 0 -1
lala 9 0.075 second second 20 1 314 6.6 7.881 0.959997415542603 0.25 0 1
lala 16 0.01875 second second 23 1 315 8 7.780626 0.919997453689575 0.25 1 1
lala 16 0.0375 first second 17 1 316 -8 -8.352499 2.79999589920044 0.25 1 -1
lala 11 0.0375 first first 13 1 317 6.6 5.665501 1.45999693870544 0 1 1
lala 14 0.075 first second 8 1 318 -8 -4.155 3.05999565124512 0 0 -1
lala 16 0.15 second second 18 1 319 -6.6 -9.906002 1.05999732017517 0.25 0 1
lala 8 0.3 first first 2 1 320 -6.6 -7.055999 3.93999481201172 -0.25 0 1
lala 22 0.0375 second second 0 1 321 -8 -7.192501 0.979997396469116 -0.25 0 1
lala 16 0.0375 second first 9 1 322 -8 -5.1275 0.779997587203979 0 1 -1
lala 17 0.0375 first second 17 1 323 -8 -8.389999 0.979997396469116 0.25 1 -1
lala 18 0.075 first first 1 1 324 -8 -8.165 1.57999682426453 -0.25 1 1
lala 14 0.0375 second first 12 1 325 6.6 3.9435 1.7199969291687 0 0 -1
lala 19 0.6 first first 16 1 326 -8 -10.38 1.29999709129334 0.25 0 1
lala 13 0.0375 second second 10 1 327 -6.6 -5.4435 4.39999437332153 0 0 1
lala 17 0.3 first first 18 1 328 -6.6 -9.606002 2.85999584197998 0.25 0 1
lala 10 0.0375 first first 20 1 329 6.6 7.8435 1.77999687194824 0.25 0 1
lala 9 0.3 first second 2 1 330 -6.6 -6.755999 0.639997720718384 -0.25 0 -1
lala 10 0.6 first first 6 1 331 8 8.880002 1.13999724388123 -0.25 0 1
lala 12 0.3 first first 3 1 332 -6.6 -6.978001 0.899997472763062 -0.25 1 1
lala 14 0.3 second first 5 1 333 6.6 7.878 1.95999670028687 -0.25 1 -1
lala 15 0.6 second second 14 1 334 8 5.579998 0.959997415542603 0 0 1
lala 10 0.15 second second 2 1 335 -6.6 -6.905999 0.639997720718384 -0.25 0 1
lala 11 0.0375 second second 20 1 336 6.6 7.806 1.65999698638916 0.25 0 1
lala 13 0.0375 second second 22 1 337 8 8.092502 0.419997930526733 0.25 0 1
lala 14 0.01875 second second 22 1 338 8 8.073751 0.599997758865356 0.25 0 1
lala 12 0.01875 second first 13 1 339 6.6 5.64675 0.479997873306274 0 1 -1
lala 18 0.0375 first first 17 1 340 -8 -8.4275 1.69999694824219 0.25 1 1
lala 13 0.3 first first 3 1 341 -6.6 -6.678 1.21999716758728 -0.25 1 1
lala 11 0.075 first second 2 1 342 -6.6 -6.830999 1.59999680519104 -0.25 0 -1
lala 17 0.009375 first second 23 1 343 8 7.771251 1.97999668121338 0.25 1 -1
lala 19 0.075 second second 1 1 344 -8 -8.09 18.0002760887146 -0.25 1 1
lala 16 0.3 first first 14 1 345 8 5.279998 1.49999690055847 0 0 1
lala 23 0.01875 first first 0 1 346 -8 -7.17375 1.83999681472778 -0.25 0 1
lala 13 0.009375 first first 13 1 347 6.6 5.656126 2.31999635696411 0 1 1
lala 11 0.075 second second 4 1 348 6.6 9.230999 1.01999735832214 -0.25 0 1
lala 15 0.3 second first 19 1 349 -6.6 -6.7905 1.5399968624115 0.25 1 -1
lala 18 0.0046875 second first 23 1 350 8 7.775938 2.17999649047852 0.25 1 -1
lala 14 0.3 first first 3 1 351 -6.6 -6.378 0.919997453689575 -0.25 1 1
lala 15 0.15 first second 8 1 352 -8 -4.305 1.49999690055847 0 0 -1
lala 14 0.0375 second first 10 1 353 -6.6 -5.406 1.51999688148499 0 0 -1
lala 12 0.0375 second second 2 1 354 -6.6 -6.868499 0.759997606277466 -0.25 0 1
lala 24 0.01875 second first 0 1 355 -8 -7.155 5.01999378204346 -0.25 0 -1
lala 15 0.01875 second second 10 1 356 -6.6 -5.42475 1.31999707221985 0 0 1
lala 13 0.3 first second 15 1 357 8 5.840002 1.73999691009521 0 1 -1
lala 20 0.3 second second 16 1 358 -8 -10.08 1.05999732017517 0.25 0 1
lala 11 0.15 first first 7 1 359 8 9.740001 2.69999599456787 -0.25 1 1
lala 15 0.15 first second 5 1 360 6.6 8.028 1.33999705314636 -0.25 1 -1
lala 17 0.01875 second second 9 1 361 -8 -5.14625 0.699997663497925 0 1 1
lala 20 0.075 first second 1 1 362 -8 -8.015 0.919997453689575 -0.25 1 -1
lala 19 0.0046875 second first 23 1 363 8 7.780625 2.01999664306641 0.25 1 -1
lala 21 0.0375 first second 1 1 364 -8 -8.052501 1.0999972820282 -0.25 1 -1
lala 21 0.3 second first 16 1 365 -8 -9.780002 1.17999720573425 0.25 0 -1
lala 19 0.01875 second first 17 1 366 -8 -8.40875 4.03999471664429 0.25 1 -1
lala 12 0.15 first first 7 1 367 8 9.590001 2.37999629974365 -0.25 1 1
lala 22 0.0375 first second 1 1 368 -8 -8.090001 3.99999475479126 -0.25 1 -1
lala 23 0.0375 second second 1 1 369 -8 -8.127501 1.29999709129334 -0.25 1 1
lala 13 0.3 first second 7 1 370 8 9.290001 0.99999737739563 -0.25 1 -1
lala 14 0.0046875 second second 13 1 371 6.6 5.651438 0.719997644424438 0 1 1
lala 14 0.15 second first 15 1 372 8 5.990002 1.79999685287476 0 1 -1
lala 15 0.01875 second first 22 1 373 8 8.055001 1.17999720573425 0.25 0 -1
lala 18 0.6 second second 18 1 374 -6.6 -9.006001 3.09999561309814 0.25 0 1
lala 17 0.3 second first 14 1 375 8 4.979998 0.799997568130493 0 0 -1
lala 11 0.3 second first 6 1 376 8 8.580002 44.9208922386169 -0.25 0 -1
lala 20 0.0046875 first first 23 1 377 8 7.785313 1.79999685287476 0.25 1 1
lala 17 0.0375 first first 21 1 378 6.6 6.490501 1.07999730110168 0.25 1 1
lala 16 0.3 first second 8 1 379 -8 -4.605 1.49999690055847 0 0 -1
lala 15 0.0046875 second second 13 1 380 6.6 5.646751 0.699997663497925 0 1 1
lala 24 0.01875 first first 1 1 381 -8 -8.108751 1.55999684333801 -0.25 1 1
lala 18 0.075 first second 21 1 382 6.6 6.415501 1.43999695777893 0.25 1 -1
lala 16 0.0046875 first first 13 1 383 6.6 5.642064 1.03999733924866 0 1 1
lala 12 0.15 second first 6 1 384 8 8.730001 1.95999670028687 -0.25 0 -1
lala 16 0.6 first second 19 1 385 -6.6 -7.3905 1.15999722480774 0.25 1 -1
lala 17 1.2 first second 19 1 386 -6.6 -8.5905 1.07999730110168 0.25 1 -1
lala 15 0.6 second first 3 1 387 -6.6 -5.778 0.679997682571411 -0.25 1 -1
lala 21 0.00234375 second second 23 1 388 8 7.782969 0.99999737739563 0.25 1 1
lala 17 0.6 first second 8 1 389 -8 -5.205 1.19999718666077 0 0 -1
lala 18 2.4 first second 19 1 390 -6.6 -10.9905 3.15999555587769 0.25 1 -1
lala 22 0.15 first first 16 1 391 -8 -9.930001 5.57999324798584 0.25 0 1
lala 25 0.01875 second first 1 1 392 -8 -8.090001 3.11999559402466 -0.25 1 -1
lala 26 0.009375 second first 1 1 393 -8 -8.099376 1.55999684333801 -0.25 1 -1
lala 16 0.009375 second second 10 1 394 -6.6 -5.415375 1.29999709129334 0 0 1
lala 17 0.009375 second second 13 1 395 6.6 5.632689 3.87999486923218 0 1 1
lala 18 1.2 second first 8 1 396 -8 -6.405001 1.49999690055847 0 0 -1
lala 25 0.009375 first first 0 1 397 -8 -7.164375 1.03999733924866 -0.25 0 1
lala 12 0.0375 first first 20 1 398 6.6 7.7685 0.699997663497925 0.25 0 1
lala 18 0.15 first second 14 1 399 8 5.129998 2.31999635696411 0 0 -1
lala 19 1.2 first second 18 1 400 -6.6 -7.806002 13.4601731300354 0.25 0 -1
lala 12 0.075 first second 4 1 401 6.6 9.155999 5.41999340057373 -0.25 0 -1
lala 19 0.0375 second second 21 1 402 6.6 6.453001 0.859997510910034 0.25 1 1
lala 15 0.01875 first second 12 1 403 6.6 3.96225 1.49999690055847 0 0 -1
lala 16 0.15 second second 5 1 404 6.6 8.177999 1.17999720573425 -0.25 1 1
lala 17 0.009375 second first 10 1 405 -6.6 -5.406 1.03999733924866 0 0 -1
lala 13 0.075 second second 20 1 406 6.6 7.6935 0.61999773979187 0.25 0 1
lala 19 4.8 first first 19 1 407 -6.6 -15.7905 0.99999737739563 0.25 1 1
lala 14 0.15 first second 7 1 408 8 9.440001 1.41999697685242 -0.25 1 -1
lala 18 0.009375 second second 9 1 409 -8 -5.136875 0.879997491836548 0 1 1
lala 15 0.15 first first 15 1 410 8 6.140002 2.49999618530273 0 1 1
lala 19 0.15 second first 14 1 411 8 5.279998 1.05999732017517 0 0 -1
lala 16 0.075 second second 15 1 412 8 6.065002 0.559997797012329 0 1 1
lala 20 0.15 second first 14 1 413 8 5.429998 2.69999599456787 0 0 -1
lala 20 0.009375 first second 17 1 414 -8 -8.418124 0.739997625350952 0.25 1 -1
lala 14 1.2 first second 11 1 415 -6.6 -2.778 1.75999689102173 0 1 -1
lala 13 0.15 second first 6 1 416 8 8.880001 3.95999479293823 -0.25 0 -1
lala 16 0.009375 second second 22 1 417 8 8.064376 1.27999711036682 0.25 0 1
lala 15 0.15 first first 7 1 418 8 9.59 2.159996509552 -0.25 1 1
lala 15 1.2 second first 11 1 419 -6.6 -3.978 2.99999570846558 0 1 -1
lala 20 2.4 second second 19 1 420 -6.6 -13.3905 0.799997568130493 0.25 1 1
lala 13 0.01875 first second 2 1 421 -6.6 -6.849749 1.8599967956543 -0.25 0 -1
lala 18 0.0046875 first second 10 1 422 -6.6 -5.410687 0.559997797012329 0 0 -1
lala 26 0.0046875 first second 0 1 423 -8 -7.159688 0.679997682571411 -0.25 0 -1
lala 17 0.075 second second 15 1 424 8 5.990002 1.33999705314636 0 1 1
lala 27 0.00234375 first first 0 1 425 -8 -7.162032 1.7199969291687 -0.25 0 1
lala 21 0.009375 first first 17 1 426 -8 -8.427499 0.639997720718384 0.25 1 1
lala 16 0.075 first second 7 1 427 8 9.515 1.03999733924866 -0.25 1 -1
lala 14 0.15 first second 6 1 428 8 9.030001 1.67999696731567 -0.25 0 -1
lala 17 0.0046875 second second 22 1 429 8 8.059689 0.719997644424438 0.25 0 1
lala 27 0.009375 second first 1 1 430 -8 -8.10875 2.2999963760376 -0.25 1 -1
lala 20 0.6 first first 18 1 431 -6.6 -8.406002 3.11999559402466 0.25 0 1
lala 16 0.3 second second 3 1 432 -6.6 -6.078001 0.479997873306274 -0.25 1 1
lala 22 0.0046875 second first 17 1 433 -8 -8.422812 3.69999504089355 0.25 1 -1
lala 23 0.00234375 first second 17 1 434 -8 -8.425156 0.979997396469116 0.25 1 -1
lala 24 0.00234375 second first 17 1 435 -8 -8.4275 1.73999691009521 0.25 1 -1
lala 13 0.0375 first second 4 1 436 6.6 9.1935 2.13999652862549 -0.25 0 -1
lala 25 0.00234375 second first 17 1 437 -8 -8.429844 1.5399968624115 0.25 1 -1
lala 14 0.009375 second second 2 1 438 -6.6 -6.859124 0.61999773979187 -0.25 0 1
lala 22 0.00234375 first first 23 1 439 8 7.780625 1.17999720573425 0.25 1 1
lala 20 0.01875 first second 21 1 440 6.6 6.434251 1.41999697685242 0.25 1 -1
lala 18 0.075 first second 15 1 441 8 5.915002 1.81999683380127 0 1 -1
lala 21 0.3 first first 18 1 442 -6.6 -8.106002 3.51999521255493 0.25 0 1
lala 15 0.0046875 first first 2 1 443 -6.6 -6.854437 0.599997758865356 -0.25 0 1
lala 28 0.009375 first first 1 1 444 -8 -8.118125 0.319998025894165 -0.25 1 1
lala 23 0.075 second second 16 1 445 -8 -9.855001 0.559997797012329 0.25 0 1
lala 14 0.0375 second second 4 1 446 6.6 9.231 1.25999712944031 -0.25 0 1
lala 19 2.4 second second 8 1 447 -8 -8.805 0.939997434616089 0 0 1
lala 26 0.0046875 second second 17 1 448 -8 -8.434531 0.559997797012329 0.25 1 1
lala 19 0.0375 first second 15 1 449 8 5.952502 2.09999656677246 0 1 -1
lala 21 2.4 second second 19 1 450 -6.6 -10.9905 1.49999690055847 0.25 1 1
lala 23 0.00234375 second second 23 1 451 8 7.778282 0.919997453689575 0.25 1 1
lala 17 0.075 second second 5 1 452 6.6 8.103 1.29999709129334 -0.25 1 1
lala 18 0.0046875 second second 22 1 453 8 8.055001 0.339998006820679 0.25 0 1
lala 20 1.2 first first 8 1 454 -8 -7.605 1.01999735832214 0 0 1
lala 16 1.2 first first 11 1 455 -6.6 -5.178 2.17999649047852 0 1 1
lala 14 0.15 second second 20 1 456 6.6 7.5435 1.41999697685242 0.25 0 1
lala 29 0.0046875 first first 1 1 457 -8 -8.113438 1.11999726295471 -0.25 1 1
lala 16 0.01875 second first 12 1 458 6.6 3.981 0.979997396469116 0 0 -1
lala 20 0.0375 first second 15 1 459 8 5.990002 0.499997854232788 0 1 -1
lala 17 0.6 first second 11 1 460 -6.6 -4.578001 2.07999658584595 0 1 -1
lala 19 0.009375 second first 9 1 461 -8 -5.1275 1.83999681472778 0 1 -1
lala 15 0.01875 first first 4 1 462 6.6 9.21225 0.959997415542603 -0.25 0 1
lala 24 0.0046875 second second 23 1 463 8 7.773594 0.679997682571411 0.25 1 1
lala 21 0.0375 first first 15 1 464 8 6.027502 0.639997720718384 0 1 1
lala 20 0.0046875 second first 9 1 465 -8 -5.132187 7.10002756118774 0 1 -1
lala 16 0.01875 first first 4 1 466 6.6 9.1935 2.05999660491943 -0.25 0 1
lala 15 0.3 first first 6 1 467 8 9.330001 2.61999607086182 -0.25 0 1
lala 21 0.009375 second second 21 1 468 6.6 6.443626 1.81999683380127 0.25 1 1
lala 17 0.01875 second second 12 1 469 6.6 3.99975 0.959997415542603 0 0 1
lala 21 0.0046875 first first 9 1 470 -8 -5.136875 1.31999707221985 0 1 1
lala 15 0.3 second second 20 1 471 6.6 7.2435 2.05999660491943 0.25 0 1
lala 16 0.6 first first 20 1 472 6.6 6.6435 0.699997663497925 0.25 0 1
lala 24 0.075 second first 16 1 473 -8 -9.780002 1.59999680519104 0.25 0 -1
lala 19 0.0046875 second first 10 1 474 -6.6 -5.415375 0.99999737739563 0 0 -1
lala 30 0.0046875 second second 1 1 475 -8 -8.10875 1.37999701499939 -0.25 1 1
lala 28 0.001171875 second second 0 1 476 -8 -7.16086 0.959997415542603 -0.25 0 1
lala 21 1.2 second first 8 1 477 -8 -6.405001 2.41999626159668 0 0 -1
lala 17 0.15 second second 3 1 478 -6.6 -5.928 2.49999618530273 -0.25 1 1
lala 21 0.3 second first 14 1 479 8 5.729999 1.27999711036682 0 0 -1
lala 17 1.2 first first 20 1 480 6.6 5.4435 1.01999735832214 0.25 0 1
lala 16 0.0046875 second first 2 1 481 -6.6 -6.84975 4.95999383926392 -0.25 0 -1
lala 22 2.4 first first 19 1 482 -6.6 -8.5905 1.07999730110168 0.25 1 1
lala 16 0.15 first second 6 1 483 8 9.180001 2.31999635696411 -0.25 0 -1
lala 18 0.01875 second second 13 1 484 6.6 5.613938 0.719997644424438 0 1 1
lala 17 0.075 second second 6 1 485 8 9.255001 2.97999572753906 -0.25 0 1
lala 18 0.009375 first second 12 1 486 6.6 3.990375 1.3999969959259 0 0 -1
lala 22 0.00234375 second first 9 1 487 -8 -5.134531 2.65999603271484 0 1 -1
lala 25 0.0375 second second 16 1 488 -8 -9.817502 1.55999684333801 0.25 0 1
lala 19 0.0046875 first second 12 1 489 6.6 3.995063 1.35999703407288 0 0 -1
lala 20 0.0046875 second second 12 1 490 6.6 3.99975 1.91999673843384 0 0 1
lala 18 0.0375 second first 6 1 491 8 9.217501 0.23999810218811 -0.25 0 -1
lala 26 0.01875 first first 16 1 493 -8 -9.798752 1.13999724388123 0.25 0 1
lala 17 0.0375 second second 7 1 494 8 9.552501 0.939997434616089 -0.25 1 1
lala 29 0.001171875 first first 0 1 495 -8 -7.159688 0.919997453689575 -0.25 0 1
lala 18 0.01875 second first 7 1 496 8 9.533751 0.61999773979187 -0.25 1 -1
lala 18 0.3 second first 11 1 497 -6.6 -4.878001 1.55999684333801 0 1 -1
lala 18 0.15 first first 3 1 498 -6.6 -5.778 1.0999972820282 -0.25 1 1
lala 22 0.01875 first first 15 1 499 8 6.008752 0.899997472763062 0 1 1
lala 23 4.8 first second 19 1 500 -6.6 -3.7905 2.17999649047852 0.25 1 -1
lala 25 0.009375 second second 23 1 501 8 7.764219 1.51999688148499 0.25 1 1
lala 27 0.01875 first second 16 1 502 -8 -9.780002 0.859997510910034 0.25 0 -1
lala 23 0.001171875 first first 9 1 503 -8 -5.135703 4.0599946975708 0 1 1
lala 19 0.009375 first first 7 1 504 8 9.543125 3.25999546051025 -0.25 1 1
lala 17 0.01875 second second 4 1 505 6.6 9.174749 1.15999722480774 -0.25 0 1
lala 19 0.0375 first first 13 1 506 6.6 5.576438 1.79999685287476 0 1 1
lala 22 0.6 second second 14 1 507 8 6.329998 2.81999588012695 0 0 1
lala 18 0.075 second first 5 1 508 6.6 8.028 5.79999780654907 -0.25 1 -1
lala 23 0.01875 second first 15 1 509 8 5.990002 1.11999726295471 0 1 -1
lala 19 0.15 second second 3 1 510 -6.6 -5.628 3.85999488830566 -0.25 1 1
lala 26 0.01875 second second 23 1 511 8 7.745469 0.599997758865356 0.25 1 1
lala 20 0.075 second second 13 1 512 6.6 5.501439 0.299998044967651 0 1 1
lala 27 0.0375 second first 23 1 513 8 7.707969 0.299998044967651 0.25 1 -1
lala 23 0.3 second first 14 1 515 8 6.029998 3.23999547958374 0 0 -1
lala 22 0.0046875 first first 21 1 516 6.6 6.438939 1.73999691009521 0.25 1 1
lala 21 0.15 second second 13 1 517 6.6 5.351439 0.279998064041138 0 1 1
lala 21 0.00234375 second second 12 1 519 6.6 3.997406 1.15999722480774 0 0 1
lala 22 0.3 second second 13 1 520 6.6 5.051438 1.0999972820282 0 1 1
lala 24 0.009375 first first 15 1 521 8 5.999377 0.839997529983521 0 1 1
lala 17 0.00234375 second second 2 1 522 -6.6 -6.852093 7.2000298500061 -0.25 0 1
lala 24 0.15 first first 14 1 523 8 6.179998 1.25999712944031 0 0 1
lala 23 0.6 second first 13 1 524 6.6 4.451438 0.679997682571411 0 1 -1
lala 28 0.009375 first second 16 1 525 -8 -9.789376 1.41999697685242 0.25 0 -1
lala 18 2.4 second first 20 1 526 6.6 3.043499 1.27999711036682 0.25 0 -1
lala 25 0.075 second first 14 1 527 8 6.104999 2.85999584197998 0 0 -1
lala 23 0.0046875 first first 21 1 528 6.6 6.434251 5.45999336242676 0.25 1 1
lala 28 0.01875 first first 23 1 529 8 7.726719 1.55999684333801 0.25 1 1
lala 19 0.0375 first first 5 1 530 6.6 8.0655 0.919997453689575 -0.25 1 1
lala 19 0.0046875 first first 22 1 531 8 8.050314 0.859997510910034 0.25 0 1
lala 20 0.3 second second 3 1 532 -6.6 -5.328 3.45999526977539 -0.25 1 1
lala 21 0.6 first first 3 1 533 -6.6 -4.728 5.55999326705933 -0.25 1 1
lala 22 0.00234375 second first 12 1 534 6.6 3.995063 0.879997491836548 0 0 -1
lala 20 0.0046875 second second 7 1 535 8 9.538438 1.19999718666077 -0.25 1 1
lala 22 0.6 second first 8 1 537 -8 -7.005001 1.3999969959259 0 0 -1
lala 19 0.3 second second 11 1 539 -6.6 -5.178001 1.45999693870544 0 1 1
lala 24 0.3 second first 13 1 540 6.6 4.751439 2.27999639511108 0 1 -1
lala 21 0.0046875 first first 7 1 541 8 9.533751 1.25999712944031 -0.25 1 1
lala 29 0.009375 second second 16 1 543 -8 -9.798751 0.559997797012329 0.25 0 1
lala 18 0.001171875 second second 2 1 544 -6.6 -6.850921 0.819997549057007 -0.25 0 1
lala 22 1.2 first first 3 1 545 -6.6 -3.528 1.31999707221985 -0.25 1 1
lala 23 0.001171875 first second 12 1 546 6.6 3.996235 1.47999691963196 0 0 -1
lala 25 0.3 first first 13 1 547 6.6 5.051439 0.959997415542603 0 1 1
lala 20 0.0046875 second second 10 1 548 -6.6 -5.420062 0.61999773979187 0 0 1
lala 24 0.001171875 first second 12 1 549 6.6 3.997406 0.759997606277466 0 0 -1
lala 25 0.0046875 first first 15 1 550 8 5.994689 1.31999707221985 0 1 1
lala 24 0.0005859375 first second 9 1 551 -8 -5.135117 1.51999688148499 0 1 -1
lala 22 0.0046875 second second 7 1 552 8 9.529063 2.07999658584595 -0.25 1 1
lala 26 0.15 second second 13 1 553 6.6 4.901439 1.0999972820282 0 1 1
lala 19 0.001171875 second second 2 1 554 -6.6 -6.849749 0.799997568130493 -0.25 0 1
lala 25 0.001171875 first second 12 1 555 6.6 3.998578 1.49999690055847 0 0 -1
lala 27 0.15 second first 13 1 556 6.6 4.751439 0.559997797012329 0 1 -1
lala 20 0.01875 second second 5 1 557 6.6 8.04675 2.37999629974365 -0.25 1 1
lala 24 0.0046875 second second 21 1 558 6.6 6.429564 0.539997816085815 0.25 1 1
lala 23 2.4 second first 3 1 559 -6.6 -1.128 1.07999730110168 -0.25 1 -1
lala 21 0.01875 first first 5 1 560 6.6 8.028 0.899997472763062 -0.25 1 1
lala 20 0.009375 first first 22 1 562 8 8.040939 0.899997472763062 0.25 0 1
lala 29 0.009375 first first 23 1 564 8 7.717344 0.99999737739563 0.25 1 1
lala 22 0.3 second second 18 1 565 -6.6 -7.806002 0.819997549057007 0.25 0 1
lala 28 0.075 first second 13 1 566 6.6 4.826438 1.17999720573425 0 1 -1
lala 25 0.009375 second first 21 1 567 6.6 6.420189 1.87999677658081 0.25 1 -1
lala 19 1.2 second first 20 1 568 6.6 4.2435 0.719997644424438 0.25 0 -1
lala 24 1.2 second first 3 1 569 -6.6 -2.328 0.739997625350952 -0.25 1 -1
lala 18 0.0375 first first 4 1 570 6.6 9.137249 0.879997491836548 -0.25 0 1
lala 23 0.3 first second 18 1 571 -6.6 -7.506001 0.759997606277466 0.25 0 -1
lala 19 0.075 first first 4 1 572 6.6 9.062249 1.35999703407288 -0.25 0 1
lala 20 0.15 first second 11 1 573 -6.6 -5.028001 1.41999697685242 0 1 -1
lala 26 0.00234375 first first 12 1 574 6.6 4.000922 1.45999693870544 0 0 1
lala 21 0.01875 first first 22 1 575 8 8.022189 0.519997835159302 0.25 0 1
lala 26 0.0046875 second second 15 1 576 8 5.990002 0.539997816085815 0 1 1
lala 21 0.075 second first 11 1 577 -6.6 -5.103001 1.37999701499939 0 1 -1
lala 23 0.6 first first 8 1 578 -8 -7.605 1.17999720573425 0 0 1
lala 21 0.00234375 second second 10 1 579 -6.6 -5.417718 0.559997797012329 0 0 1
lala 19 0.01875 second second 6 1 580 8 9.236251 4.25999450683594 -0.25 0 1
lala 20 0.009375 second first 6 1 581 8 9.226876 1.51999688148499 -0.25 0 -1
lala 29 0.075 second first 13 1 582 6.6 4.901438 2.61999607086182 0 1 -1
lala 24 2.4 first second 19 1 583 -6.6 -6.1905 1.35999703407288 0.25 1 -1
lala 20 0.15 first first 4 1 584 6.6 8.91225 1.63999700546265 -0.25 0 1
lala 22 0.0375 first first 22 1 585 8 7.984689 0.419997930526733 0.25 0 1
lala 24 0.15 second second 18 1 587 -6.6 -7.656002 0.659997701644897 0.25 0 1
lala 30 0.075 second first 13 1 588 6.6 4.976438 0.699997663497925 0 1 -1
lala 30 0.0046875 second second 16 1 589 -8 -9.794064 1.79999685287476 0.25 0 1
lala 21 0.0046875 first first 6 1 592 8 9.231564 2.17999649047852 -0.25 0 1
lala 20 1.2 second second 20 1 593 6.6 5.4435 3.57999515533447 0.25 0 1
lala 24 0.3 second second 8 1 594 -8 -7.305 0.719997644424438 0 0 1
lala 21 0.3 first first 4 1 595 6.6 8.612249 0.99999737739563 -0.25 0 1
lala 23 0.075 second second 22 1 596 8 7.909689 0.559997797012329 0.25 0 1
lala 31 0.0046875 first second 16 1 599 -8 -9.789376 1.79999685287476 0.25 0 -1
lala 22 0.01875 first first 5 1 600 6.6 8.00925 0.919997453689575 -0.25 1 1
lala 31 0.15 first first 13 1 601 6.6 5.126438 0.759997606277466 0 1 1
lala 25 2.4 second first 19 1 602 -6.6 -8.5905 1.0999972820282 0.25 1 -1
lala 32 0.00234375 second second 16 1 603 -8 -9.79172 0.679997682571411 0.25 0 1
lala 25 0.0002929688 first second 9 1 604 -8 -5.13541 1.17999720573425 0 1 -1
lala 22 0.075 first second 11 1 605 -6.6 -5.178 0.919997453689575 0 1 -1
lala 21 0.6 first second 20 1 606 6.6 4.8435 2.21999645233154 0.25 0 -1
lala 24 0.15 second second 22 1 607 8 7.759689 1.03999733924866 0.25 0 1
lala 27 0.0046875 first first 15 1 608 8 5.985315 2.63999605178833 0 1 1
lala 25 1.2 first second 3 1 610 -6.6 -3.528 0.679997682571411 -0.25 1 -1
lala 23 0.075 first first 11 1 611 -6.6 -5.253 0.859997510910034 0 1 1
lala 26 0.0002929688 first first 9 1 612 -8 -5.135703 0.939997434616089 0 1 1
lala 26 0.0375 first first 14 1 614 8 6.142498 1.73999691009521 0 0 1
lala 22 0.00234375 first second 6 1 615 8 9.229219 0.679997682571411 -0.25 0 -1
lala 26 0.0046875 second second 21 1 616 6.6 6.424876 0.779997587203979 0.25 1 1
lala 22 0.3 second first 20 1 617 6.6 5.1435 0.779997587203979 0.25 0 -1
lala 25 0.3 second second 8 1 619 -8 -7.005 0.919997453689575 0 0 1
lala 28 0.009375 first first 15 1 620 8 5.97594 1.7199969291687 0 1 1
lala 23 0.009375 second second 7 1 621 8 9.519689 2.31999635696411 -0.25 1 1
lala 25 0.075 first first 18 1 622 -6.6 -7.581002 0.759997606277466 0.25 0 1
lala 24 0.01875 second first 7 1 623 8 9.500938 0.61999773979187 -0.25 1 -1
lala 24 0.0375 first second 11 1 627 -6.6 -5.2155 0.639997720718384 0 1 -1
lala 23 0.3 second second 20 1 628 6.6 5.4435 1.17999720573425 0.25 0 1
lala 26 0.075 first second 18 1 631 -6.6 -7.506002 0.739997625350952 0.25 0 -1
lala 22 0.6 second second 4 1 632 6.6 8.012249 2.89999580383301 -0.25 0 1
lala 22 0.00234375 second second 10 1 633 -6.6 -5.415375 0.879997491836548 0 0 1
lala 25 0.009375 first first 7 1 634 8 9.510313 0.979997396469116 -0.25 1 1
lala 27 0.0375 second second 18 1 637 -6.6 -7.543502 1.29999709129334 0.25 0 1
lala 26 2.4 second second 19 1 638 -6.6 -10.9905 1.8599967956543 0.25 1 1
lala 32 0.075 first first 13 1 639 6.6 5.051438 1.61999702453613 0 1 1
lala 30 0.009375 second first 23 1 640 8 7.707969 1.61999702453613 0.25 1 -1
lala 26 0.3 first first 8 1 641 -8 -6.705 1.21999716758728 0 0 1
lala 23 0.0375 first first 5 1 642 6.6 7.97175 0.99999737739563 -0.25 1 1
lala 20 0.001171875 second first 2 1 643 -6.6 -6.848577 1.55999684333801 -0.25 0 -1
lala 25 0.01875 first first 11 1 644 -6.6 -5.234251 1.03999733924866 0 1 1
lala 25 0.3 second second 22 1 645 8 7.459689 1.65999698638916 0.25 0 1
lala 23 0.001171875 first second 6 1 646 8 9.230392 0.979997396469116 -0.25 0 -1
lala 23 1.2 first second 4 1 647 6.6 6.812249 1.21999716758728 -0.25 0 -1
lala 26 0.0046875 first first 7 1 648 8 9.505626 27.360490322113 -0.25 1 1
lala 26 0.6 second second 22 1 649 8 6.859689 4.23999452590942 0.25 0 1
lala 27 1.2 second second 19 1 651 -6.6 -9.7905 1.63999700546265 0.25 1 1
lala 33 0.075 first first 13 1 653 6.6 4.976439 0.359997987747192 0 1 1
lala 27 0.6 first second 8 1 654 -8 -6.105 1.77999687194824 0 0 -1
lala 27 1.2 second first 22 1 656 8 5.659689 1.0999972820282 0.25 0 -1
lala 24 0.15 first second 20 1 657 6.6 5.2935 2.23999643325806 0.25 0 -1
lala 28 0.6 first second 22 1 658 8 6.259689 1.65999698638916 0.25 0 -1
lala 28 0.3 first second 8 1 659 -8 -6.405 1.81999683380127 0 0 -1
lala 24 0.075 first first 5 1 660 6.6 7.89675 1.51999688148499 -0.25 1 1
lala 29 0.3 second second 8 1 661 -8 -6.705 0.739997625350952 0 0 1
lala 21 0.0005859375 second first 2 1 662 -6.6 -6.849163 0.679997682571411 -0.25 0 -1
lala 25 0.075 first first 20 1 664 6.6 5.3685 2.2999963760376 0.25 0 1
lala 31 0.0046875 second second 23 1 665 8 7.712656 0.979997396469116 0.25 1 1
lala 23 0.00234375 first first 10 1 666 -6.6 -5.413031 1.41999697685242 0 0 1
lala 26 0.009375 first second 11 1 667 -6.6 -5.224875 1.43999695777893 0 1 -1
lala 26 0.0375 second first 20 1 668 6.6 5.331 0.61999773979187 0.25 0 -1
lala 30 0.15 second first 8 1 669 -8 -6.555 1.37999701499939 0 0 -1
lala 27 0.01875 first second 20 1 670 6.6 5.34975 1.61999702453613 0.25 0 -1
lala 24 0.0046875 second second 10 1 672 -6.6 -5.408344 1.15999722480774 0 0 1
lala 26 1.2 second first 3 1 674 -6.6 -4.728 1.73999691009521 -0.25 1 -1
lala 32 0.00234375 first first 23 1 675 8 7.710313 2.49999618530273 0.25 1 1
lala 29 0.6 second second 22 1 676 8 6.859689 0.519997835159302 0.25 0 1
lala 22 0.0005859375 second second 2 1 677 -6.6 -6.849749 0.819997549057007 -0.25 0 1
lala 27 0.01875 second second 14 1 678 8 6.123748 1.47999691963196 0 0 1
lala 28 0.01875 second first 14 1 679 8 6.104998 1.43999695777893 0 0 -1
lala 34 0.075 first second 13 1 680 6.6 4.901439 2.47999620437622 0 1 -1
lala 27 2.4 first first 3 1 681 -6.6 -7.128 0.99999737739563 -0.25 1 1
lala 25 0.009375 first first 10 1 682 -6.6 -5.398969 0.779997587203979 0 0 1
lala 26 0.01875 first second 10 1 684 -6.6 -5.380219 1.5399968624115 0 0 -1
lala 35 0.0375 second second 13 1 686 6.6 4.938939 1.0999972820282 0 1 1
lala 28 1.2 first first 19 1 687 -6.6 -8.5905 0.899997472763062 0.25 1 1
lala 27 0.0046875 first first 7 1 689 8 9.500938 1.03999733924866 -0.25 1 1
lala 28 0.01875 first second 20 1 691 6.6 5.3685 0.579997777938843 0.25 0 -1
lala 28 0.01875 first first 18 1 692 -6.6 -7.524752 0.61999773979187 0.25 0 1
lala 33 0.00234375 second second 23 1 694 8 7.707969 0.559997797012329 0.25 1 1
lala 23 0.0002929688 first first 2 1 695 -6.6 -6.849456 0.699997663497925 -0.25 0 1
lala 24 0.001171875 first first 6 1 696 8 9.231564 1.37999701499939 -0.25 0 1
lala 29 0.01875 second second 18 1 697 -6.6 -7.506001 4.07999467849731 0.25 0 1
lala 24 0.0002929688 first first 2 1 698 -6.6 -6.849164 0.639997720718384 -0.25 0 1
lala 29 0.009375 second first 14 1 699 8 6.114373 0.679997682571411 0 0 -1
lala 30 0.009375 second first 14 1 700 8 6.123748 0.699997663497925 0 0 -1
lala 28 1.2 first first 3 1 701 -6.6 -5.928 1.49999690055847 -0.25 1 1
lala 29 1.2 first first 19 1 703 -6.6 -7.3905 0.839997529983521 0.25 1 1
lala 29 1.2 first first 3 1 704 -6.6 -4.728001 0.99999737739563 -0.25 1 1
lala 31 0.009375 first first 14 1 705 8 6.133123 1.69999694824219 0 0 1
lala 25 0.0005859375 second second 6 1 706 8 9.230978 5.65999460220337 -0.25 0 1
lala 32 0.0046875 first second 14 1 707 8 6.128436 3.01999568939209 0 0 -1
lala 29 0.01875 first first 20 1 710 6.6 5.38725 2.159996509552 0.25 0 1
lala 28 0.0046875 first first 7 1 712 8 9.496251 0.479997873306274 -0.25 1 1
lala 30 0.01875 second second 18 1 713 -6.6 -7.487251 0.879997491836548 0.25 0 1
lala 33 0.00234375 second second 14 1 715 8 6.13078 3.11999559402466 0 0 1
lala 27 0.0046875 second second 11 1 717 -6.6 -5.229563 1.01999735832214 0 1 1
lala 31 0.075 second second 8 1 720 -8 -6.63 0.899997472763062 0 0 1
lala 27 0.009375 second second 10 1 721 -6.6 -5.389594 0.359997987747192 0 0 1
lala 31 0.0375 second second 18 1 722 -6.6 -7.449751 1.15999722480774 0.25 0 1
lala 28 0.00234375 second second 11 1 723 -6.6 -5.227219 0.459997892379761 0 1 1
lala 30 1.2 second first 3 1 724 -6.6 -3.528001 0.799997568130493 -0.25 1 -1
lala 29 0.009375 first second 7 1 725 8 9.486876 1.91999673843384 -0.25 1 -1
lala 31 0.6 second second 3 1 727 -6.6 -4.128001 1.65999698638916 -0.25 1 1
lala 30 0.009375 first first 20 1 728 6.6 5.377875 3.49999523162842 0.25 0 1
lala 32 0.0375 first first 8 1 729 -8 -6.5925 1.67999696731567 0 0 1
lala 26 0.0005859375 first second 6 1 731 8 9.230392 2.159996509552 -0.25 0 -1
lala 31 0.009375 second first 20 1 733 6.6 5.3685 1.57999682426453 0.25 0 -1
lala 24 0.6 first first 4 1 734 6.6 7.412249 2.57999610900879 -0.25 0 1
lala 25 0.3 second first 4 1 735 6.6 7.112249 2.03999662399292 -0.25 0 -1
lala 28 0.0046875 second second 10 1 737 -6.6 -5.384906 1.07999730110168 0 0 1
lala 30 2.4 second first 19 1 739 -6.6 -4.9905 0.879997491836548 0.25 1 -1
lala 25 0.0002929688 second second 2 1 741 -6.6 -6.848871 2.91999578475952 -0.25 0 1
lala 29 0.00234375 second second 11 1 742 -6.6 -5.224875 1.91999673843384 0 1 1
lala 32 0.3 second first 3 1 743 -6.6 -3.828001 1.93999671936035 -0.25 1 -1
lala 31 1.2 second first 19 1 744 -6.6 -6.1905 1.61999702453613 0.25 1 -1
lala 32 0.0046875 second first 20 1 745 6.6 5.373188 1.07999730110168 0.25 0 -1
lala 29 0.0046875 second second 10 1 747 -6.6 -5.380219 1.37999701499939 0 0 1
lala 26 0.0005859375 first first 2 1 750 -6.6 -6.848285 2.19999647140503 -0.25 0 1
lala 30 0.00234375 first first 11 1 752 -6.6 -5.222532 1.01999735832214 0 1 1
lala 30 0.0046875 second second 10 1 753 -6.6 -5.375532 0.419997930526733 0 0 1
lala 30 0.3 first second 22 1 754 8 6.559689 0.839997529983521 0.25 0 -1
lala 31 0.15 second first 22 1 755 8 6.709689 0.959997415542603 0.25 0 -1
lala 25 0.15 first second 5 1 757 6.6 7.74675 1.61999702453613 -0.25 1 -1
lala 33 0.15 first first 3 1 759 -6.6 -3.978001 0.899997472763062 -0.25 1 1
lala 32 1.2 first first 19 1 760 -6.6 -7.3905 0.679997682571411 0.25 1 1
lala 26 0.15 first first 4 1 761 6.6 7.262249 1.77999687194824 -0.25 0 1
lala 33 0.0375 first first 8 1 762 -8 -6.555 0.839997529983521 0 0 1
lala 31 0.009375 first first 10 1 764 -6.6 -5.366157 0.659997701644897 0 0 1
lala 33 0.0046875 first first 20 1 766 6.6 5.377875 1.25999712944031 0.25 0 1
lala 34 0.075 second first 3 1 768 -6.6 -3.903001 0.679997682571411 -0.25 1 -1
lala 26 0.075 first second 5 1 769 6.6 7.82175 2.2999963760376 -0.25 1 -1
lala 34 0.00234375 second second 20 1 776 6.6 5.375531 0.799997568130493 0.25 0 1
lala 35 0.0375 second first 3 1 777 -6.6 -3.940501 0.519997835159302 -0.25 1 -1
lala 27 0.075 second first 4 1 779 6.6 7.187249 1.37999701499939 -0.25 0 -1
lala 33 0.6 first second 19 1 786 -6.6 -6.7905 1.47999691963196 0.25 1 -1
lala 32 0.15 second first 22 1 787 8 6.859689 0.959997415542603 0.25 0 -1
lala 28 0.0375 first second 4 1 788 6.6 7.224749 3.01999568939209 -0.25 0 -1
lala 27 0.075 first second 5 1 790 6.6 7.896749 1.0999972820282 -0.25 1 -1
lala 33 0.15 first second 22 1 791 8 7.009689 0.699997663497925 0.25 0 -1
lala 34 0.3 first second 22 1 792 8 7.309689 0.439997911453247 0.25 0 -1
lala 29 0.0375 first first 4 1 793 6.6 7.262249 0.799997568130493 -0.25 0 1
lala 32 0.075 first second 18 1 802 -6.6 -7.374752 0.579997777938843 0.25 0 -1
lala 35 0.6 first first 22 1 805 8 7.909689 3.23999547958374 0.25 0 1
lala 33 0.0375 second first 18 1 806 -6.6 -7.412251 0.459997892379761 0.25 0 -1
lala 34 0.3 second first 19 1 807 -6.6 -7.0905 1.43999695777893 0.25 1 -1
lala 35 0.3 first second 19 1 810 -6.6 -7.390501 1.61999702453613 0.25 1 -1
lala 28 0.075 second second 5 1 816 6.6 7.971749 0.659997701644897 -0.25 1 1
lala 29 0.0375 first second 5 1 817 6.6 7.934249 0.599997758865356 -0.25 1 -1
lala 34 0.0375 second first 8 1 818 -8 -6.5175 1.41999697685242 0 0 -1
lala 34 0.0375 second first 18 1 823 -6.6 -7.449751 2.85999584197998 0.25 0 -1
lala 30 0.01875 first first 5 1 824 6.6 7.953 0.699997663497925 -0.25 1 1
lala 30 0.01875 first second 4 1 825 6.6 7.243499 1.33999705314636 -0.25 0 -1
lala 31 0.009375 first second 4 1 826 6.6 7.252874 0.599997758865356 -0.25 0 -1
lala 32 0.009375 first second 4 1 827 6.6 7.262249 0.319998025894165 -0.25 0 -1
lala 35 0.0375 first second 18 1 828 -6.6 -7.487251 1.61999702453613 0.25 0 -1
lala 33 0.009375 first second 4 1 829 6.6 7.271624 0.61999773979187 -0.25 0 -1
lala 34 0.01875 second second 4 1 830 6.6 7.290374 1.17999720573425 -0.25 0 1
lala 35 0.009375 first second 4 1 831 6.6 7.280999 1.11999726295471 -0.25 0 -1
lala 31 0.009375 first first 5 1 832 6.6 7.943624 0.579997777938843 -0.25 1 1
lala 35 0.01875 first first 8 1 834 -8 -6.536251 4.33999443054199 0 0 1
lala 32 0.009375 second second 5 1 836 6.6 7.934249 1.03999733924866 -0.25 1 1
lala 33 0.009375 second second 5 1 838 6.6 7.924874 0.639997720718384 -0.25 1 1
lala 34 0.01875 first first 5 1 839 6.6 7.906124 0.919997453689575 -0.25 1 1
