subject PestNr Step_Size_OnTrial Response_Interval Pest_Interval Condition block trial velH velH_Pest Reaction_Time velH_Subject Start_Above Response_MotionEstimation
lala 1 1.2 second first 4 1 1 6.6 4.356 4.83999395370483 -0.2 0 -1
lala 1 1.2 first second 14 1 2 8 5.28 0.659997701644897 0 0 -1
lala 1 1.2 second second 15 1 3 8 10.64 0.419997930526733 0 1 1
lala 1 1.2 second first 11 1 4 -6.6 -8.778 0.379997968673706 0 1 -1
lala 1 1.2 first first 17 1 5 -8 -10.64 0.379997968673706 0.2 1 1
lala 1 1.2 first second 22 1 6 8 5.28 1.79999685287476 0.2 0 -1
lala 1 1.2 second first 20 1 7 6.6 4.356 0.859997510910034 0.2 0 -1
lala 2 1.2 second first 14 1 8 8 6.48 2.43999624252319 0 0 -1
lala 1 1.2 first first 19 1 9 -6.6 -8.778 0.599997758865356 0.2 1 1
lala 1 1.2 first first 1 1 10 -8 -10.64 0.579997777938843 -0.2 1 1
lala 1 1.2 second first 2 1 11 -6.6 -4.356 0.119998216629028 -0.2 0 -1
lala 2 1.2 first second 2 1 12 -6.6 -5.556 1.75999689102173 -0.2 0 -1
lala 2 1.2 first first 17 1 13 -8 -9.440001 0.599997758865356 0.2 1 1
lala 1 1.2 first second 10 1 14 -6.6 -4.356 1.41999697685242 0 0 -1
lala 2 1.2 first second 4 1 15 6.6 5.556 0.499997854232788 -0.2 0 -1
lala 2 1.2 first first 15 1 16 8 9.440001 1.47999691963196 0 1 1
lala 3 1.2 second second 14 1 17 8 7.68 0.379997968673706 0 0 1
lala 1 1.2 second first 12 1 18 6.6 4.356 0.759997606277466 0 0 -1
lala 1 1.2 first first 9 1 19 -8 -10.64 0.779997587203979 0 1 1
lala 2 1.2 second second 22 1 20 8 6.48 0.419997930526733 0.2 0 1
lala 2 1.2 first second 10 1 21 -6.6 -5.556 1.01999735832214 0 0 -1
lala 3 1.2 first second 4 1 22 6.6 6.756 3.31999540328979 -0.2 0 -1
lala 1 1.2 first second 18 1 23 -6.6 -4.356 0.599997758865356 0.2 0 -1
lala 2 1.2 first first 9 1 24 -8 -9.440001 0.159998178482056 0 1 1
lala 2 1.2 second first 19 1 25 -6.6 -7.578 3.39999532699585 0.2 1 -1
lala 2 1.2 first first 18 1 26 -6.6 -5.556 0.899997472763062 0.2 0 1
lala 1 1.2 second first 6 1 27 8 5.28 0.299998044967651 -0.2 0 -1
lala 1 1.2 first first 23 1 28 8 10.64 0.539997816085815 0.2 1 1
lala 1 1.2 second second 5 1 29 6.6 8.778 0.319998025894165 -0.2 1 1
lala 2 1.2 first first 23 1 30 8 9.440001 0.559997797012329 0.2 1 1
lala 2 1.2 first first 12 1 31 6.6 5.556 2.67999601364136 0 0 1
lala 2 1.2 first first 6 1 32 8 6.48 0.779997587203979 -0.2 0 1
lala 2 1.2 second second 11 1 33 -6.6 -9.978 0.299998044967651 0 1 1
lala 4 1.2 first first 4 1 34 6.6 7.955999 0.539997816085815 -0.2 0 1
lala 3 1.2 first first 11 1 35 -6.6 -8.778 0.61999773979187 0 1 1
lala 3 1.2 second second 2 1 36 -6.6 -6.756 0.319998025894165 -0.2 0 1
lala 2 1.2 first first 5 1 37 6.6 7.578 2.13999652862549 -0.2 1 1
lala 1 1.2 second first 0 1 38 -8 -5.28 0.299998044967651 -0.2 0 -1
lala 1 1.2 first first 21 1 39 6.6 8.778 0.539997816085815 0.2 1 1
lala 2 1.2 second second 0 1 40 -8 -6.48 0.519997835159302 -0.2 0 1
lala 3 1.2 second first 18 1 41 -6.6 -4.356 0.179998159408569 0.2 0 -1
lala 5 0.6 second second 4 1 42 6.6 7.355999 0.419997930526733 -0.2 0 1
lala 4 1.2 first first 18 1 43 -6.6 -5.556 0.939997434616089 0.2 0 1
lala 4 1.2 first first 2 1 44 -6.6 -5.556 0.439997911453247 -0.2 0 1
lala 1 1.2 second first 16 1 45 -8 -5.28 0.199998140335083 0.2 0 -1
lala 5 1.2 first second 2 1 46 -6.6 -4.356 0.479997873306274 -0.2 0 -1
lala 3 1.2 second first 6 1 47 8 5.280001 0.179998159408569 -0.2 0 -1
lala 1 1.2 second second 3 1 48 -6.6 -8.778 0.259998083114624 -0.2 1 1
lala 4 1.2 second second 11 1 49 -6.6 -7.578 0.259998083114624 0 1 1
lala 3 1.2 first first 9 1 50 -8 -8.240001 0.479997873306274 0 1 1
lala 3 1.2 first first 19 1 51 -6.6 -8.778 0.319998025894165 0.2 1 1
lala 5 0.6 first second 18 1 52 -6.6 -4.956 0.159998178482056 0.2 0 -1
lala 2 1.2 first first 3 1 53 -6.6 -7.578 0.299998044967651 -0.2 1 1
lala 3 1.2 second second 23 1 54 8 8.240001 0.259998083114624 0.2 1 1
lala 1 1.2 first second 8 1 55 -8 -5.28 0.479997873306274 0 0 -1
lala 6 0.6 second second 4 1 56 6.6 6.756 0.419997930526733 -0.2 0 1
lala 2 1.2 first first 20 1 57 6.6 5.556 0.699997663497925 0.2 0 1
lala 3 1.2 first first 17 1 58 -8 -8.240001 0.739997625350952 0.2 1 1
lala 1 1.2 first first 7 1 59 8 10.64 0.639997720718384 -0.2 1 1
lala 3 1.2 first first 10 1 60 -6.6 -6.756 0.339998006820679 0 0 1
lala 5 2.4 second second 11 1 61 -6.6 -5.178 0.659997701644897 0 1 1
lala 6 4.8 second first 11 1 62 -6.6 -0.3779998 0.339998006820679 0 1 -1
lala 7 0.6 second second 4 1 63 6.6 6.156 3.29999542236328 -0.2 0 1
lala 2 1.2 second second 7 1 64 8 9.440001 0.379997968673706 -0.2 1 1
lala 8 1.2 second first 4 1 65 6.6 4.955999 0.959997415542603 -0.2 0 -1
lala 4 1.2 second second 19 1 66 -6.6 -7.578 0.479997873306274 0.2 1 1
lala 3 1.2 first second 20 1 67 6.6 4.356 0.519997835159302 0.2 0 -1
lala 4 1.2 second second 23 1 68 8 7.040001 0.319998025894165 0.2 1 1
lala 2 1.2 second second 8 1 69 -8 -6.48 0.499997854232788 0 0 1
lala 4 1.2 second second 20 1 70 6.6 5.556 5.079993724823 0.2 0 1
lala 7 2.4 second first 11 1 71 -6.6 -2.778 0.23999810218811 0 1 -1
lala 3 1.2 second second 22 1 72 8 5.280001 0.519997835159302 0.2 0 1
lala 4 1.2 second first 6 1 73 8 6.48 5.41999340057373 -0.2 0 -1
lala 2 1.2 second first 16 1 74 -8 -6.48 0.359997987747192 0.2 0 -1
lala 4 1.2 second second 17 1 75 -8 -7.040001 0.739997625350952 0.2 1 1
lala 3 1.2 first first 15 1 76 8 8.240001 0.519997835159302 0 1 1
lala 1 1.2 first first 13 1 77 6.6 8.778 1.89999675750732 0 1 1
lala 3 1.2 second second 16 1 78 -8 -7.68 0.259998083114624 0.2 0 1
lala 4 1.2 second second 16 1 79 -8 -6.48 0.319998025894165 0.2 0 1
lala 3 1.2 second second 7 1 80 8 8.240001 0.339998006820679 -0.2 1 1
lala 5 0.6 first first 20 1 81 6.6 4.956 0.679997682571411 0.2 0 1
lala 5 2.4 second first 17 1 82 -8 -4.640001 0.179998159408569 0.2 1 -1
lala 6 0.6 second first 20 1 83 6.6 4.356 0.219998121261597 0.2 0 -1
lala 3 1.2 second second 3 1 84 -6.6 -6.378 0.339998006820679 -0.2 1 1
lala 3 1.2 first first 5 1 85 6.6 6.378 0.439997911453247 -0.2 1 1
lala 3 1.2 second second 0 1 86 -8 -5.280001 219.870660305023 -0.2 0 1
lala 8 2.4 second second 11 1 87 -6.6 -5.178 0.579997777938843 0 1 1
lala 2 1.2 first first 13 1 88 6.6 7.578 0.719997644424438 0 1 1
lala 4 1.2 first second 0 1 89 -8 -4.080001 0.459997892379761 -0.2 0 -1
lala 6 0.3 second first 18 1 90 -6.6 -5.256 0.23999810218811 0.2 0 -1
lala 7 0.3 second first 20 1 91 6.6 4.656 0.379997968673706 0.2 0 -1
lala 5 0.6 second first 0 1 92 -8 -4.680001 0.319998025894165 -0.2 0 -1
lala 4 1.2 first second 10 1 93 -6.6 -5.556 0.939997434616089 0 0 -1
lala 3 1.2 second first 8 1 94 -8 -5.280001 0.299998044967651 0 0 -1
lala 4 1.2 first first 3 1 95 -6.6 -5.178 0.699997663497925 -0.2 1 1
lala 8 0.3 first second 20 1 96 6.6 4.956 0.439997911453247 0.2 0 -1
lala 4 1.2 first first 8 1 97 -8 -6.48 2.57999610900879 0 0 1
lala 5 1.2 first first 16 1 98 -8 -5.280001 2.77999591827393 0.2 0 1
lala 9 1.2 first second 11 1 99 -6.6 -3.978 0.279998064041138 0 1 -1
lala 6 0.6 second second 2 1 100 -6.6 -4.956 0.379997968673706 -0.2 0 1
lala 4 1.2 first second 22 1 101 8 4.080001 1.17999720573425 0.2 0 -1
lala 5 1.2 first second 19 1 102 -6.6 -6.378 5.69999551773071 0.2 1 -1
lala 7 0.3 second first 18 1 103 -6.6 -5.556 0.219998121261597 0.2 0 -1
lala 6 1.2 first second 17 1 104 -8 -5.840001 0.299998044967651 0.2 1 -1
lala 6 0.6 first first 19 1 105 -6.6 -6.978 0.219998121261597 0.2 1 1
lala 9 0.3 first first 20 1 106 6.6 5.256001 0.39999794960022 0.2 0 1
lala 5 0.6 second first 22 1 107 8 4.680001 0.359997987747192 0.2 0 -1
lala 7 1.2 first second 17 1 108 -8 -7.040001 1.07999730110168 0.2 1 -1
lala 9 0.6 first first 4 1 109 6.6 5.555999 0.699997663497925 -0.2 0 1
lala 7 0.3 first first 19 1 110 -6.6 -6.678 0.479997873306274 0.2 1 1
lala 2 1.2 second second 21 1 111 6.6 7.578 0.299998044967651 0.2 1 1
lala 10 0.15 first first 20 1 112 6.6 5.106 0.479997873306274 0.2 0 1
lala 4 1.2 first first 7 1 113 8 7.040001 0.479997873306274 -0.2 1 1
lala 5 1.2 first first 6 1 114 8 7.68 0.699997663497925 -0.2 0 1
lala 5 2.4 second first 3 1 115 -6.6 -2.778 0.179998159408569 -0.2 1 -1
lala 8 0.3 first first 19 1 116 -6.6 -6.378 0.61999773979187 0.2 1 1
lala 4 1.2 second second 9 1 117 -8 -7.040001 0.359997987747192 0 1 1
lala 10 0.3 second first 4 1 118 6.6 5.255999 0.339998006820679 -0.2 0 -1
lala 5 0.6 first first 10 1 119 -6.6 -6.156 0.879997491836548 0 0 1
lala 4 1.2 first first 15 1 120 8 7.040001 0.299998044967651 0 1 1
lala 6 0.6 second second 22 1 121 8 5.280001 1.7199969291687 0.2 0 1
lala 5 2.4 first second 15 1 122 8 4.640001 0.23999810218811 0 1 -1
lala 4 1.2 second second 5 1 123 6.6 5.178 0.259998083114624 -0.2 1 1
lala 6 2.4 second first 16 1 124 -8 -2.880001 0.299998044967651 0.2 0 -1
lala 3 1.2 second first 12 1 125 6.6 4.356 2.85999584197998 0 0 -1
lala 2 1.2 first first 1 1 126 -8 -9.440001 0.39999794960022 -0.2 1 1
lala 11 0.15 first second 20 1 127 6.6 4.956 1.05999732017517 0.2 0 -1
lala 3 1.2 first first 1 1 128 -8 -8.240001 0.819997549057007 -0.2 1 1
lala 12 0.075 first second 20 1 129 6.6 5.031 2.05999660491943 0.2 0 -1
lala 6 0.6 first first 6 1 130 8 7.08 0.439997911453247 -0.2 0 1
lala 8 1.2 second second 17 1 131 -8 -8.240001 0.179998159408569 0.2 1 1
lala 4 1.2 second second 12 1 132 6.6 5.556 0.639997720718384 0 0 1
lala 4 1.2 second second 14 1 133 8 6.48 0.279998064041138 0 0 1
lala 9 0.3 first first 19 1 134 -6.6 -6.078 2.33999633789063 0.2 1 1
lala 6 0.6 second second 0 1 135 -8 -5.280001 0.579997777938843 -0.2 0 1
lala 11 0.15 first second 4 1 136 6.6 5.405999 1.51999688148499 -0.2 0 -1
lala 6 1.2 first first 15 1 137 8 5.840001 0.819997549057007 0 1 1
lala 5 2.4 second first 7 1 138 8 4.640001 0.39999794960022 -0.2 1 -1
lala 7 0.3 second first 0 1 139 -8 -4.98 0.379997968673706 -0.2 0 -1
lala 3 1.2 second second 21 1 140 6.6 6.378 0.519997835159302 0.2 1 1
lala 9 0.6 first first 17 1 141 -8 -7.640001 0.459997892379761 0.2 1 1
lala 7 0.6 first first 15 1 142 8 5.240001 0.519997835159302 0 1 1
lala 5 2.4 first second 5 1 143 6.6 2.778 1.21999716758728 -0.2 1 -1
lala 10 0.6 second first 11 1 144 -6.6 -4.578 0.299998044967651 0 1 -1
lala 8 0.3 first second 18 1 145 -6.6 -5.856 1.75999689102173 0.2 0 -1
lala 7 0.6 second second 6 1 146 8 6.48 0.499997854232788 -0.2 0 1
lala 12 0.15 first first 4 1 147 6.6 5.555999 1.07999730110168 -0.2 0 1
lala 7 1.2 second first 16 1 148 -8 -4.080001 0.139998197555542 0.2 0 -1
lala 13 0.075 first first 4 1 149 6.6 5.480999 0.879997491836548 -0.2 0 1
lala 14 0.075 first second 4 1 150 6.6 5.406 0.359997987747192 -0.2 0 -1
lala 13 0.075 second second 20 1 151 6.6 5.106 0.279998064041138 0.2 0 1
lala 6 1.2 first second 3 1 152 -6.6 -3.978 0.899997472763062 -0.2 1 -1
lala 4 1.2 first first 21 1 153 6.6 5.178 1.65999698638916 0.2 1 1
lala 5 0.6 second first 12 1 154 6.6 4.956 0.659997701644897 0 0 -1
lala 5 1.2 second second 14 1 155 8 5.280001 1.97999668121338 0 0 1
lala 6 1.2 first second 5 1 156 6.6 3.978 1.21999716758728 -0.2 1 -1
lala 10 0.6 first second 19 1 157 -6.6 -5.478 0.759997606277466 0.2 1 -1
lala 8 0.6 first second 15 1 158 8 4.640001 0.379997968673706 0 1 -1
lala 5 2.4 second first 21 1 159 6.6 2.778 0.579997777938843 0.2 1 -1
lala 8 0.6 first second 6 1 160 8 5.880001 0.699997663497925 -0.2 0 -1
lala 4 1.2 first first 1 1 161 -8 -7.040001 0.539997816085815 -0.2 1 1
lala 5 0.6 second first 8 1 162 -8 -5.880001 0.319998025894165 0 0 -1
lala 6 0.3 second first 8 1 163 -8 -6.180001 0.519997835159302 0 0 -1
lala 6 0.3 first first 12 1 164 6.6 5.256 0.979997396469116 0 0 1
lala 9 0.3 first second 15 1 165 8 4.940001 1.13999724388123 0 1 -1
lala 5 2.4 first second 1 1 166 -8 -4.640001 0.459997892379761 -0.2 1 -1
lala 6 1.2 second first 21 1 167 6.6 3.978 0.339998006820679 0.2 1 -1
lala 9 0.6 first first 18 1 168 -6.6 -6.456 0.39999794960022 0.2 0 1
lala 7 0.3 first second 22 1 169 8 4.98 0.719997644424438 0.2 0 -1
lala 7 1.2 second second 3 1 170 -6.6 -5.178 0.23999810218811 -0.2 1 1
lala 6 1.2 second second 1 1 171 -8 -5.840001 1.17999720573425 -0.2 1 1
lala 7 1.2 second second 21 1 172 6.6 5.178 0.599997758865356 0.2 1 1
lala 10 0.6 first first 17 1 173 -8 -7.040001 0.519997835159302 0.2 1 1
lala 8 0.15 first second 22 1 174 8 5.130001 0.379997968673706 0.2 0 -1
lala 6 2.4 second first 14 1 175 8 2.880001 0.379997968673706 0 0 -1
lala 7 0.15 second second 12 1 176 6.6 5.106 1.23999714851379 0 0 1
lala 14 0.0375 first first 20 1 177 6.6 5.0685 0.379997968673706 0.2 0 1
lala 10 0.3 second second 15 1 178 8 5.240002 0.259998083114624 0 1 1
lala 15 0.0375 first first 4 1 179 6.6 5.4435 0.419997930526733 -0.2 0 1
lala 7 1.2 first first 14 1 180 8 4.080001 0.639997720718384 0 0 1
lala 11 0.3 second first 19 1 181 -6.6 -5.778 0.359997987747192 0.2 1 -1
lala 12 0.3 first second 19 1 182 -6.6 -6.078 0.859997510910034 0.2 1 -1
lala 10 0.3 second first 18 1 183 -6.6 -6.156 0.559997797012329 0.2 0 -1
lala 8 0.6 second second 21 1 184 6.6 4.578001 0.39999794960022 0.2 1 1
lala 9 0.6 first first 21 1 185 6.6 3.978001 0.419997930526733 0.2 1 1
lala 11 0.6 first first 17 1 186 -8 -6.440001 0.939997434616089 0.2 1 1
lala 9 0.3 first first 6 1 187 8 6.180001 0.519997835159302 -0.2 0 1
lala 10 0.6 second first 21 1 188 6.6 3.378001 0.519997835159302 0.2 1 -1
lala 6 0.3 first first 10 1 189 -6.6 -5.855999 0.639997720718384 0 0 1
lala 7 0.3 second second 8 1 190 -8 -6.480001 0.259998083114624 0 0 1
lala 8 0.15 first first 12 1 191 6.6 4.956 0.639997720718384 0 0 1
lala 13 0.3 second second 19 1 192 -6.6 -6.378 0.559997797012329 0.2 1 1
lala 5 2.4 second first 9 1 193 -8 -4.640001 0.23999810218811 0 1 -1
lala 8 0.15 first second 0 1 194 -8 -5.130001 0.879997491836548 -0.2 0 -1
lala 3 1.2 first first 13 1 195 6.6 6.378 0.39999794960022 0 1 1
lala 5 2.4 first second 23 1 196 8 4.640001 0.499997854232788 0.2 1 -1
lala 7 0.3 first second 2 1 197 -6.6 -4.656 0.899997472763062 -0.2 0 -1
lala 9 0.15 first second 0 1 198 -8 -5.280001 0.61999773979187 -0.2 0 -1
lala 8 0.6 first first 3 1 199 -6.6 -4.578001 1.99999666213989 -0.2 1 1
lala 9 0.6 second first 3 1 200 -6.6 -3.978001 0.159998178482056 -0.2 1 -1
lala 4 1.2 first first 13 1 201 6.6 5.178 0.299998044967651 0 1 1
lala 11 0.15 second first 15 1 202 8 5.090002 0.339998006820679 0 1 -1
lala 6 1.2 first first 7 1 203 8 5.840001 0.799997568130493 -0.2 1 1
lala 7 0.3 first first 10 1 204 -6.6 -5.555999 0.379997968673706 0 0 1
lala 7 0.6 second second 7 1 205 8 5.240001 0.159998178482056 -0.2 1 1
lala 7 0.6 second second 1 1 206 -8 -5.240001 0.379997968673706 -0.2 1 1
lala 12 1.2 first second 17 1 207 -8 -5.240001 0.299998044967651 0.2 1 -1
lala 9 0.15 second second 22 1 208 8 5.280001 0.219998121261597 0.2 0 1
lala 8 0.15 first first 8 1 209 -8 -6.330001 0.339998006820679 0 0 1
lala 10 0.15 first first 6 1 210 8 6.030001 0.339998006820679 -0.2 0 1
lala 9 0.15 first first 8 1 211 -8 -6.180001 0.379997968673706 0 0 1
lala 10 0.15 second second 0 1 212 -8 -5.430001 0.299998044967651 -0.2 0 1
lala 9 0.15 first second 12 1 213 6.6 4.806 0.299998044967651 0 0 -1
lala 8 0.15 second second 2 1 214 -6.6 -4.806 0.179998159408569 -0.2 0 1
lala 6 1.2 second second 9 1 215 -8 -5.840001 0.339998006820679 0 1 1
lala 11 0.3 second first 21 1 216 6.6 3.678001 0.879997491836548 0.2 1 -1
lala 11 0.15 first second 6 1 217 8 5.880001 0.479997873306274 -0.2 0 -1
lala 8 0.6 second first 7 1 218 8 4.640001 0.639997720718384 -0.2 1 -1
lala 7 0.6 first second 9 1 219 -8 -5.240001 0.539997816085815 0 1 -1
lala 12 0.075 first first 6 1 220 8 5.955 0.499997854232788 -0.2 0 1
lala 15 0.0375 second second 20 1 221 6.6 5.031 0.199998140335083 0.2 0 1
lala 8 0.3 first second 9 1 222 -8 -5.540001 0.379997968673706 0 1 -1
lala 10 0.3 second first 3 1 223 -6.6 -4.278001 0.579997777938843 -0.2 1 -1
lala 9 0.075 first first 2 1 224 -6.6 -4.731 0.839997529983521 -0.2 0 1
lala 11 0.15 first first 18 1 225 -6.6 -6.306 0.479997873306274 0.2 0 1
lala 8 0.6 first second 14 1 226 8 3.480001 0.279998064041138 0 0 -1
lala 12 0.3 first second 21 1 227 6.6 3.978001 0.859997510910034 0.2 1 -1
lala 11 0.075 first first 0 1 228 -8 -5.355001 0.719997644424438 -0.2 0 1
lala 9 0.3 second second 7 1 229 8 4.940001 0.739997625350952 -0.2 1 1
lala 9 0.3 second first 14 1 230 8 3.780001 2.03999662399292 0 0 -1
lala 7 1.2 second second 5 1 231 6.6 5.178 0.599997758865356 -0.2 1 1
lala 12 0.075 first first 0 1 232 -8 -5.280001 0.559997797012329 -0.2 0 1
lala 12 0.075 first second 15 1 233 8 5.165001 1.97999668121338 0 1 -1
lala 10 0.075 second second 12 1 234 6.6 4.881 0.279998064041138 0 0 1
lala 9 0.3 second second 9 1 235 -8 -5.840002 0.299998044967651 0 1 1
lala 8 0.3 second second 10 1 236 -6.6 -5.255999 3.13999557495117 0 0 1
lala 10 0.075 second first 22 1 237 8 5.205001 1.37999701499939 0.2 0 -1
lala 13 0.075 second second 15 1 238 8 5.240001 0.439997911453247 0 1 1
lala 16 0.0375 first first 20 1 239 6.6 4.9935 1.75999689102173 0.2 0 1
lala 11 0.0375 second first 12 1 240 6.6 4.8435 0.859997510910034 0 0 -1
lala 12 0.075 first second 18 1 241 -6.6 -6.231 1.11999726295471 0.2 0 -1
lala 14 0.15 second first 19 1 242 -6.6 -6.228 6.64001703262329 0.2 1 -1
lala 10 0.15 second second 8 1 243 -8 -6.030001 1.01999735832214 0 0 1
lala 10 0.15 second second 9 1 244 -8 -5.690001 0.319998025894165 0 1 1
lala 6 1.2 second first 23 1 245 8 5.840001 0.519997835159302 0.2 1 -1
lala 17 0.075 second first 20 1 246 6.6 4.9185 1.31999707221985 0.2 0 -1
lala 10 0.075 first second 2 1 247 -6.6 -4.656 2.07999658584595 -0.2 0 -1
lala 18 0.0375 second second 20 1 248 6.6 4.956 0.299998044967651 0.2 0 1
lala 12 0.01875 first first 12 1 249 6.6 4.86225 0.719997644424438 0 0 1
lala 10 0.15 second first 7 1 250 8 4.790001 0.299998044967651 -0.2 1 -1
lala 13 0.6 second first 17 1 251 -8 -5.840001 2.37999629974365 0.2 1 -1
lala 7 1.2 second second 23 1 252 8 7.040001 1.25999712944031 0.2 1 1
lala 13 0.0375 first second 18 1 253 -6.6 -6.2685 0.979997396469116 0.2 0 -1
lala 13 0.075 first second 0 1 254 -8 -5.205001 0.459997892379761 -0.2 0 -1
lala 8 0.6 second first 1 1 255 -8 -4.640001 0.61999773979187 -0.2 1 -1
lala 11 0.6 first first 11 1 256 -6.6 -5.178 0.419997930526733 0 1 1
lala 9 0.6 second first 10 1 257 -6.6 -4.655999 0.339998006820679 0 0 -1
lala 14 0.0375 second second 15 1 258 8 5.202501 0.539997816085815 0 1 1
lala 9 0.3 first second 1 1 259 -8 -4.940001 0.539997816085815 -0.2 1 -1
lala 8 0.6 second second 23 1 260 8 6.440001 0.299998044967651 0.2 1 1
lala 10 0.3 second second 10 1 261 -6.6 -4.955999 0.579997777938843 0 0 1
lala 14 0.0375 first first 18 1 262 -6.6 -6.306 0.319998025894165 0.2 0 1
lala 13 0.3 second first 21 1 263 6.6 4.278001 0.279998064041138 0.2 1 -1
lala 13 0.009375 second first 12 1 264 6.6 4.852875 0.61999773979187 0 0 -1
lala 11 0.3 second second 8 1 265 -8 -5.73 0.499997854232788 0 0 1
lala 8 0.6 second second 5 1 266 6.6 4.578001 1.69999694824219 -0.2 1 1
lala 14 0.6 second first 17 1 267 -8 -6.440001 0.319998025894165 0.2 1 -1
lala 5 2.4 second first 13 1 268 6.6 2.778 2.65999603271484 0 1 -1
lala 15 0.6 second second 17 1 269 -8 -7.04 1.05999732017517 0.2 1 1
lala 11 0.15 second first 9 1 270 -8 -5.540001 0.859997510910034 0 1 -1
lala 11 0.0375 first second 22 1 271 8 5.242501 0.319998025894165 0.2 0 -1
lala 14 0.0046875 first second 12 1 272 6.6 4.857562 0.839997529983521 0 0 -1
lala 15 0.0046875 first second 12 1 273 6.6 4.862249 0.939997434616089 0 0 -1
lala 9 0.6 second second 23 1 274 8 5.840001 0.199998140335083 0.2 1 1
lala 9 0.6 second first 5 1 275 6.6 3.978001 1.99999666213989 -0.2 1 -1
lala 14 0.6 first second 21 1 276 6.6 4.878001 1.03999733924866 0.2 1 -1
lala 10 0.3 second second 1 1 277 -8 -5.240002 0.319998025894165 -0.2 1 1
lala 15 1.2 second second 21 1 278 6.6 6.078001 0.219998121261597 0.2 1 1
lala 15 0.0375 first second 15 1 279 8 5.165001 0.499997854232788 0 1 -1
lala 11 0.15 second second 1 1 280 -8 -5.090002 0.279998064041138 -0.2 1 1
lala 12 0.075 first second 9 1 281 -8 -5.615001 1.63999700546265 0 1 -1
lala 12 0.6 second first 8 1 282 -8 -5.130001 0.219998121261597 0 0 -1
lala 12 0.15 first second 1 1 283 -8 -4.940001 0.61999773979187 -0.2 1 -1
lala 6 1.2 first first 13 1 284 6.6 3.978 1.33999705314636 0 1 1
lala 16 0.3 second first 17 1 285 -8 -6.74 0.339998006820679 0.2 1 -1
lala 15 0.01875 first first 18 1 286 -6.6 -6.28725 0.839997529983521 0.2 0 1
lala 11 0.15 first second 10 1 287 -6.6 -4.805999 0.23999810218811 0 0 -1
lala 16 0.01875 second second 18 1 288 -6.6 -6.2685 0.39999794960022 0.2 0 1
lala 13 0.3 first first 8 1 289 -8 -5.430001 0.179998159408569 0 0 1
lala 16 0.6 first first 21 1 290 6.6 5.478001 0.359997987747192 0.2 1 1
lala 13 0.075 first second 1 1 291 -8 -5.015001 0.259998083114624 -0.2 1 -1
lala 19 0.01875 first first 20 1 292 6.6 4.93725 0.419997930526733 0.2 0 1
lala 17 0.01875 second second 18 1 293 -6.6 -6.24975 0.559997797012329 0.2 0 1
lala 17 0.15 first first 17 1 294 -8 -6.89 0.559997797012329 0.2 1 1
lala 13 0.0375 first second 6 1 295 8 5.9175 0.319998025894165 -0.2 0 -1
lala 18 0.0375 first first 18 1 296 -6.6 -6.21225 0.299998044967651 0.2 0 1
lala 19 0.075 second second 18 1 297 -6.6 -6.13725 0.279998064041138 0.2 0 1
lala 14 0.0375 second second 0 1 298 -8 -5.242501 0.539997816085815 -0.2 0 1
lala 14 0.15 second first 8 1 299 -8 -5.280001 0.199998140335083 0 0 -1
lala 16 0.01875 first second 15 1 300 8 5.183752 0.479997873306274 0 1 -1
lala 15 0.01875 first second 0 1 301 -8 -5.223751 0.679997682571411 -0.2 0 -1
lala 11 0.0375 first second 2 1 302 -6.6 -4.6935 0.359997987747192 -0.2 0 -1
lala 7 0.6 first second 13 1 303 6.6 3.378 0.299998044967651 0 1 -1
lala 14 0.01875 first second 6 1 304 8 5.936251 1.87999677658081 -0.2 0 -1
lala 20 0.01875 first first 20 1 305 6.6 4.9185 0.199998140335083 0.2 0 1
lala 12 0.075 second second 10 1 306 -6.6 -4.880999 0.39999794960022 0 0 1
lala 8 1.2 first second 16 1 307 -8 -5.280001 0.859997510910034 0.2 0 -1
lala 9 1.2 second second 16 1 308 -8 -6.48 0.539997816085815 0.2 0 1
lala 12 0.0375 first first 2 1 309 -6.6 -4.731 1.45999693870544 -0.2 0 1
lala 10 0.3 first second 14 1 310 8 4.080001 0.379997968673706 0 0 -1
lala 10 0.6 first first 23 1 311 8 5.240001 1.69999694824219 0.2 1 1
lala 11 1.2 first second 23 1 312 8 4.040001 0.359997987747192 0.2 1 -1
lala 12 0.3 second second 11 1 313 -6.6 -4.878 0.379997968673706 0 1 1
lala 13 0.3 first second 11 1 314 -6.6 -4.578 0.479997873306274 0 1 -1
lala 14 0.15 second second 11 1 315 -6.6 -4.728 1.59999680519104 0 1 1
lala 13 0.075 first first 9 1 316 -8 -5.690001 0.659997701644897 0 1 1
lala 13 0.0375 second first 10 1 317 -6.6 -4.843499 0.599997758865356 0 0 -1
lala 15 0.01875 first first 6 1 318 8 5.955001 0.979997396469116 -0.2 0 1
lala 11 0.3 first second 14 1 319 8 4.380001 1.21999716758728 0 0 -1
lala 14 0.01875 second first 10 1 320 -6.6 -4.862249 0.359997987747192 0 0 -1
lala 16 0.009375 first first 6 1 321 8 5.945626 0.299998044967651 -0.2 0 1
lala 10 0.3 second first 5 1 322 6.6 4.278001 0.39999794960022 -0.2 1 -1
lala 15 0.075 second first 8 1 323 -8 -5.355 1.61999702453613 0 0 -1
lala 15 0.075 second first 11 1 324 -6.6 -4.653 0.919997453689575 0 1 -1
lala 12 0.0375 first first 22 1 325 8 5.280001 0.579997777938843 0.2 0 1
lala 17 0.6 second first 21 1 326 6.6 4.878001 0.339998006820679 0.2 1 -1
lala 16 0.0046875 second first 12 1 327 6.6 4.866937 0.859997510910034 0 0 -1
lala 21 0.01875 second second 20 1 328 6.6 4.89975 0.439997911453247 0.2 0 1
lala 10 0.6 second first 16 1 329 -8 -5.880001 0.919997453689575 0.2 0 -1
lala 15 0.01875 first second 10 1 330 -6.6 -4.881 0.699997663497925 0 0 -1
lala 11 0.3 first first 5 1 331 6.6 4.578001 4.87999391555786 -0.2 1 1
lala 14 0.075 second first 1 1 332 -8 -5.090001 0.739997625350952 -0.2 1 -1
lala 18 0.075 first first 17 1 333 -8 -6.815001 0.359997987747192 0.2 1 1
lala 13 0.01875 first second 2 1 334 -6.6 -4.71225 0.919997453689575 -0.2 0 -1
lala 16 0.01875 second first 10 1 335 -6.6 -4.89975 4.01999473571777 0 0 -1
lala 15 0.075 second first 1 1 336 -8 -5.165001 0.23999810218811 -0.2 1 -1
lala 18 0.3 second second 21 1 337 6.6 5.178001 0.23999810218811 0.2 1 1
lala 17 0.009375 first second 6 1 338 8 5.936251 0.519997835159302 -0.2 0 -1
lala 12 0.15 first second 5 1 339 6.6 4.428001 0.279998064041138 -0.2 1 -1
lala 12 0.6 second first 14 1 340 8 4.980001 0.339998006820679 0 0 -1
lala 14 0.009375 first first 2 1 341 -6.6 -4.721625 0.319998025894165 -0.2 0 1
lala 15 0.075 first first 19 1 342 -6.6 -6.303 0.459997892379761 0.2 1 1
lala 19 0.15 first first 21 1 343 6.6 5.028001 0.419997930526733 0.2 1 1
lala 11 0.3 second first 16 1 344 -8 -6.180001 1.55999684333801 0.2 0 -1
lala 13 0.075 first second 5 1 345 6.6 4.503001 0.499997854232788 -0.2 1 -1
lala 12 0.3 first first 16 1 346 -8 -6.480001 1.01999735832214 0.2 0 1
lala 16 0.0375 first first 11 1 347 -6.6 -4.6905 0.959997415542603 0 1 1
lala 22 0.0375 second second 20 1 348 6.6 4.86225 1.01999735832214 0.2 0 1
lala 15 0.0046875 second first 2 1 349 -6.6 -4.716938 0.539997816085815 -0.2 0 -1
lala 14 0.0375 first first 9 1 350 -8 -5.652501 1.35999703407288 0 1 1
lala 16 0.00234375 first second 2 1 351 -6.6 -4.719281 0.539997816085815 -0.2 0 -1
lala 8 0.3 first second 13 1 352 6.6 3.678 0.419997930526733 0 1 -1
lala 11 0.075 second second 7 1 353 8 4.865001 0.559997797012329 -0.2 1 1
lala 17 0.00234375 second first 2 1 354 -6.6 -4.721625 323.639367580414 -0.2 0 -1
lala 23 0.075 first first 20 1 355 6.6 4.78725 2.05999660491943 0.2 0 1
lala 12 0.0375 first second 7 1 356 8 4.827501 0.339998006820679 -0.2 1 -1
lala 9 0.3 first first 13 1 357 6.6 3.978 0.459997892379761 0 1 1
lala 24 0.15 second second 20 1 358 6.6 4.63725 0.299998044967651 0.2 0 1
lala 17 0.01875 second second 15 1 359 8 5.202502 0.739997625350952 0 1 1
lala 16 0.01875 first first 4 1 360 6.6 5.424749 0.699997663497925 -0.2 0 1
lala 17 0.009375 first second 12 1 361 6.6 4.876312 0.339998006820679 0 0 -1
lala 17 0.0375 first second 10 1 362 -6.6 -4.93725 1.03999733924866 0 0 -1
lala 13 1.2 second second 14 1 363 8 6.180001 0.419997930526733 0 0 1
lala 19 0.075 second first 17 1 364 -8 -6.740001 0.299998044967651 0.2 1 -1
lala 18 0.009375 first first 15 1 365 8 5.193127 0.439997911453247 0 1 1
lala 20 0.0375 first first 17 1 366 -8 -6.777501 0.699997663497925 0.2 1 1
lala 18 0.075 second first 10 1 367 -6.6 -5.012249 0.519997835159302 0 0 -1
lala 17 0.01875 first first 4 1 368 6.6 5.405999 0.819997549057007 -0.2 0 1
lala 25 0.3 second first 20 1 369 6.6 4.33725 0.319998025894165 0.2 0 -1
lala 26 0.15 second first 20 1 370 6.6 4.48725 1.07999730110168 0.2 0 -1
lala 13 0.01875 first second 7 1 371 8 4.846251 0.319998025894165 -0.2 1 -1
lala 17 0.01875 second first 11 1 372 -6.6 -4.67175 0.359997987747192 0 1 -1
lala 15 0.0375 second second 9 1 373 -8 -5.615001 0.319998025894165 0 1 1
lala 20 0.15 first first 21 1 374 6.6 4.878001 0.439997911453247 0.2 1 1
lala 14 0.6 first first 14 1 375 8 5.580001 1.93999671936035 0 0 1
lala 11 0.3 second first 3 1 376 -6.6 -4.578001 0.219998121261597 -0.2 1 -1
lala 13 0.01875 first first 22 1 377 8 5.26125 0.659997701644897 0.2 0 1
lala 10 0.15 second first 13 1 378 6.6 3.828 0.23999810218811 0 1 -1
lala 16 0.0375 first second 9 1 379 -8 -5.577501 0.459997892379761 0 1 -1
lala 16 0.009375 first second 0 1 380 -8 -5.233126 0.379997968673706 -0.2 0 -1
lala 12 0.6 first second 23 1 381 8 4.640001 0.479997873306274 0.2 1 -1
lala 16 0.075 second first 8 1 382 -8 -5.43 0.279998064041138 0 0 -1
lala 14 0.01875 first first 7 1 383 8 4.865002 0.499997854232788 -0.2 1 1
lala 17 0.075 second first 8 1 384 -8 -5.505 0.359997987747192 0 0 -1
lala 14 0.01875 second second 22 1 385 8 5.2425 0.359997987747192 0.2 0 1
lala 21 0.15 first first 21 1 386 6.6 4.728001 0.359997987747192 0.2 1 1
lala 16 0.15 first first 1 1 387 -8 -5.315001 0.819997549057007 -0.2 1 1
lala 17 0.009375 first second 0 1 388 -8 -5.242501 0.359997987747192 -0.2 0 -1
lala 18 0.0046875 first first 6 1 389 8 5.940938 1.8599967956543 -0.2 0 1
lala 15 0.009375 first second 7 1 390 8 4.855627 0.579997777938843 -0.2 1 -1
lala 13 0.15 first first 16 1 391 -8 -6.330001 0.779997587203979 0.2 0 1
lala 27 0.15 first second 20 1 392 6.6 4.63725 0.759997606277466 0.2 0 -1
lala 16 0.0046875 first second 7 1 393 8 4.860314 0.519997835159302 -0.2 1 -1
lala 18 0.01875 first first 4 1 394 6.6 5.387249 0.839997529983521 -0.2 0 1
lala 22 0.3 first second 21 1 395 6.6 4.428001 1.69999694824219 0.2 1 -1
lala 28 0.15 first first 20 1 396 6.6 4.78725 0.919997453689575 0.2 0 1
lala 19 0.0375 first first 4 1 397 6.6 5.349749 0.799997568130493 -0.2 0 1
lala 20 0.075 second second 4 1 398 6.6 5.274749 1.35999703407288 -0.2 0 1
lala 17 0.0046875 first first 7 1 399 8 4.865001 0.479997873306274 -0.2 1 1
lala 23 0.15 second first 21 1 400 6.6 4.578001 0.639997720718384 0.2 1 -1
lala 18 0.01875 second second 12 1 401 6.6 4.895062 0.359997987747192 0 0 1
lala 18 0.15 second second 8 1 402 -8 -5.655 0.799997568130493 0 0 1
lala 21 0.15 second second 4 1 403 6.6 5.124749 0.339998006820679 -0.2 0 1
lala 12 0.3 first second 3 1 404 -6.6 -4.878001 0.579997777938843 -0.2 1 -1
lala 18 0.009375 second second 0 1 405 -8 -5.251876 0.659997701644897 -0.2 0 1
lala 19 0.0046875 first first 0 1 406 -8 -5.247189 0.979997396469116 -0.2 0 1
lala 19 0.009375 first first 12 1 407 6.6 4.885687 0.739997625350952 0 0 1
lala 20 0.0046875 second second 0 1 408 -8 -5.242502 0.359997987747192 -0.2 0 1
lala 20 0.15 second second 18 1 409 -6.6 -5.98725 0.419997930526733 0.2 0 1
lala 18 0.00234375 first second 2 1 410 -6.6 -4.723969 0.39999794960022 -0.2 0 -1
lala 21 0.0046875 first second 0 1 411 -8 -5.237814 0.919997453689575 -0.2 0 -1
lala 22 0.3 first first 4 1 412 6.6 4.824749 0.579997777938843 -0.2 0 1
lala 21 0.01875 second second 17 1 413 -8 -6.75875 0.379997968673706 0.2 1 1
lala 14 0.075 first second 5 1 414 6.6 4.578001 0.299998044967651 -0.2 1 -1
lala 16 0.0375 first first 19 1 415 -6.6 -6.2655 0.879997491836548 0.2 1 1
lala 20 0.009375 first first 12 1 416 6.6 4.876312 0.459997892379761 0 0 1
lala 19 0.075 second first 8 1 417 -8 -5.58 0.179998159408569 0 0 -1
lala 15 0.075 first second 5 1 418 6.6 4.653 1.8599967956543 -0.2 1 -1
lala 17 0.075 second second 1 1 419 -8 -5.240001 0.23999810218811 -0.2 1 1
lala 17 0.01875 second second 9 1 420 -8 -5.596251 0.419997930526733 0 1 1
lala 18 0.009375 first first 9 1 421 -8 -5.586876 0.499997854232788 0 1 1
lala 20 0.0375 first first 8 1 422 -8 -5.6175 0.939997434616089 0 0 1
lala 29 0.075 second second 20 1 423 6.6 4.71225 0.419997930526733 0.2 0 1
lala 21 0.009375 second second 12 1 424 6.6 4.866937 0.419997930526733 0 0 1
lala 19 0.0046875 first second 2 1 425 -6.6 -4.728656 0.39999794960022 -0.2 0 -1
lala 30 0.075 second second 20 1 426 6.6 4.63725 0.279998064041138 0.2 0 1
lala 13 0.6 first first 23 1 427 8 5.240001 0.739997625350952 0.2 1 1
lala 13 0.6 second second 3 1 428 -6.6 -5.478001 0.299998044967651 -0.2 1 1
lala 14 0.15 first first 16 1 429 -8 -6.180001 0.279998064041138 0.2 0 1
lala 19 0.00234375 first first 6 1 430 8 5.938594 0.299998044967651 -0.2 0 1
lala 18 0.009375 second first 11 1 431 -6.6 -4.681125 0.23999810218811 0 1 -1
lala 20 0.009375 second second 2 1 432 -6.6 -4.738031 0.319998025894165 -0.2 0 1
lala 23 0.6 first second 4 1 433 6.6 4.224749 0.219998121261597 -0.2 0 -1
lala 17 0.0375 first first 19 1 434 -6.6 -6.228 0.899997472763062 0.2 1 1
lala 24 0.3 second first 4 1 436 6.6 4.524749 0.259998083114624 -0.2 0 -1
lala 15 0.01875 first first 22 1 437 8 5.22375 0.419997930526733 0.2 0 1
lala 22 0.01875 second first 12 1 438 6.6 4.848186 0.779997587203979 0 0 -1
lala 21 0.3 second second 18 1 439 -6.6 -5.68725 0.439997911453247 0.2 0 1
lala 14 0.3 first first 23 1 440 8 4.940001 0.279998064041138 0.2 1 1
lala 21 0.01875 second first 8 1 442 -8 -5.59875 0.299998044967651 0 0 -1
lala 18 0.0375 first first 19 1 443 -6.6 -6.1905 0.339998006820679 0.2 1 1
lala 23 0.009375 second second 12 1 444 6.6 4.857562 0.519997835159302 0 0 1
lala 16 0.15 first first 5 1 445 6.6 4.803 0.419997930526733 -0.2 1 1
lala 15 0.3 first second 23 1 446 8 4.64 1.07999730110168 0.2 1 -1
lala 14 0.3 first second 3 1 447 -6.6 -5.178001 0.379997968673706 -0.2 1 -1
lala 15 0.6 second first 14 1 448 8 4.980001 1.43999695777893 0 0 -1
lala 18 0.075 first first 1 1 449 -8 -5.165001 0.479997873306274 -0.2 1 1
lala 15 0.15 first second 3 1 450 -6.6 -5.328001 1.0999972820282 -0.2 1 -1
lala 19 0.075 first second 1 1 452 -8 -5.090002 0.439997911453247 -0.2 1 -1
lala 16 0.15 first second 3 1 453 -6.6 -5.478001 0.419997930526733 -0.2 1 -1
lala 16 0.0375 first first 22 1 454 8 5.18625 0.479997873306274 0.2 0 1
lala 17 0.075 first first 22 1 455 8 5.11125 0.379997968673706 0.2 0 1
lala 19 0.15 second second 10 1 456 -6.6 -5.16225 0.979997396469116 0 0 1
lala 19 0.009375 first second 9 1 457 -8 -5.577501 1.41999697685242 0 1 -1
lala 15 0.15 second first 16 1 458 -8 -6.030001 0.339998006820679 0.2 0 -1
lala 17 0.075 first second 5 1 459 6.6 4.728001 0.319998025894165 -0.2 1 -1
lala 25 0.3 second first 4 1 460 6.6 4.824749 0.599997758865356 -0.2 0 -1
lala 18 0.15 first first 22 1 461 8 4.96125 2.21999645233154 0.2 0 1
lala 26 0.3 first second 4 1 462 6.6 5.12475 1.07999730110168 -0.2 0 -1
lala 24 0.0046875 second first 12 1 463 6.6 4.852874 0.23999810218811 0 0 -1
lala 22 0.009375 second first 8 1 464 -8 -5.608125 0.719997644424438 0 0 -1
lala 22 0.01875 first first 17 1 465 -8 -6.74 0.419997930526733 0.2 1 1
lala 18 0.00234375 second first 7 1 466 8 4.862658 0.299998044967651 -0.2 1 -1
lala 18 0.0375 first second 5 1 467 6.6 4.765501 0.359997987747192 -0.2 1 -1
lala 19 0.3 first second 22 1 468 8 4.66125 0.299998044967651 0.2 0 -1
lala 17 0.15 first first 3 1 469 -6.6 -5.628001 0.599997758865356 -0.2 1 1
lala 19 0.0375 second first 5 1 470 6.6 4.803 0.299998044967651 -0.2 1 -1
lala 31 0.075 first second 20 1 471 6.6 4.562251 0.439997911453247 0.2 0 -1
lala 11 0.075 first second 13 1 472 6.6 3.903 0.219998121261597 0 1 -1
lala 22 0.6 first second 18 1 473 -6.6 -5.08725 0.319998025894165 0.2 0 -1
lala 16 0.3 first second 14 1 474 8 5.280002 0.839997529983521 0 0 -1
lala 19 0.009375 first second 11 1 475 -6.6 -4.6905 0.539997816085815 0 1 -1
lala 23 0.009375 second first 8 1 476 -8 -5.6175 0.579997777938843 0 0 -1
lala 24 0.15 first second 21 1 477 6.6 4.728001 0.319998025894165 0.2 1 -1
lala 20 0.0375 first second 5 1 478 6.6 4.8405 0.259998083114624 -0.2 1 -1
lala 32 0.0375 first first 20 1 479 6.6 4.599751 0.299998044967651 0.2 0 1
lala 24 0.009375 second second 8 1 480 -8 -5.626875 0.539997816085815 0 0 1
lala 25 0.00234375 first second 12 1 481 6.6 4.855218 0.39999794960022 0 0 -1
lala 20 0.075 second second 10 1 482 -6.6 -5.08725 0.339998006820679 0 0 1
lala 19 0.075 second second 19 1 483 -6.6 -6.1155 0.659997701644897 0.2 1 1
lala 21 0.075 first second 10 1 484 -6.6 -5.01225 0.39999794960022 0 0 -1
lala 16 0.15 first second 23 1 485 8 4.79 0.299998044967651 0.2 1 -1
lala 17 0.15 first first 23 1 486 8 4.940001 0.579997777938843 0.2 1 1
lala 23 0.01875 second second 17 1 487 -8 -6.72125 2.05999660491943 0.2 1 1
lala 12 0.075 first second 13 1 488 6.6 3.978 0.279998064041138 0 1 -1
lala 17 0.3 first first 14 1 489 8 5.580002 4.6399941444397 0 0 1
lala 33 0.01875 first second 20 1 490 6.6 4.581 3.63999509811401 0.2 0 -1
lala 20 0.15 first second 19 1 491 -6.6 -5.9655 0.779997587203979 0.2 1 -1
lala 26 0.00234375 first first 12 1 492 6.6 4.857562 0.699997663497925 0 0 1
lala 18 0.075 second first 23 1 493 8 4.865001 0.199998140335083 0.2 1 -1
lala 13 0.075 first first 13 1 494 6.6 4.053 0.279998064041138 0 1 1
lala 20 0.0046875 second first 9 1 495 -8 -5.582189 0.499997854232788 0 1 -1
lala 18 0.075 second second 3 1 496 -6.6 -5.553001 0.759997606277466 -0.2 1 1
lala 23 0.3 first first 18 1 497 -6.6 -5.38725 0.579997777938843 0.2 0 1
lala 25 0.15 first second 21 1 498 6.6 4.878001 0.479997873306274 0.2 1 -1
lala 14 0.0375 first second 13 1 499 6.6 4.0155 0.319998025894165 0 1 -1
lala 24 0.15 second first 18 1 501 -6.6 -5.23725 0.199998140335083 0.2 0 -1
lala 34 0.009375 first second 20 1 502 6.6 4.590375 0.479997873306274 0.2 0 -1
lala 25 0.075 first second 18 1 503 -6.6 -5.31225 0.359997987747192 0.2 0 -1
lala 20 0.00234375 first first 6 1 504 8 5.936251 0.459997892379761 -0.2 0 1
lala 21 0.0046875 first first 2 1 505 -6.6 -4.733344 0.599997758865356 -0.2 0 1
lala 21 0.00234375 first second 6 1 506 8 5.933907 2.09999656677246 -0.2 0 -1
lala 20 0.009375 first second 11 1 507 -6.6 -4.699875 0.219998121261597 0 1 -1
lala 22 0.0375 first second 10 1 508 -6.6 -5.04975 0.219998121261597 0 0 -1
lala 26 0.3 first first 21 1 509 6.6 5.178001 0.259998083114624 0.2 1 1
lala 25 0.0046875 first second 8 1 510 -8 -5.622188 0.61999773979187 0 0 -1
lala 19 0.009375 second first 15 1 511 8 5.183752 1.63999700546265 0 1 -1
lala 19 0.0375 first first 23 1 512 8 4.902501 0.299998044967651 0.2 1 1
lala 15 0.01875 first second 13 1 513 6.6 4.03425 0.259998083114624 0 1 -1
lala 19 0.001171875 second first 7 1 514 8 4.86383 0.179998159408569 -0.2 1 -1
lala 21 0.075 first second 5 1 515 6.6 4.9155 0.499997854232788 -0.2 1 -1
lala 18 0.15 first first 14 1 516 8 5.430002 0.359997987747192 0 0 1
lala 20 0.0046875 first first 15 1 517 8 5.188439 0.379997968673706 0 1 1
lala 26 0.075 first second 18 1 519 -6.6 -5.387249 0.299998044967651 0.2 0 -1
lala 35 0.009375 second second 20 1 520 6.6 4.599751 0.419997930526733 0.2 0 1
lala 23 0.0375 first second 10 1 521 -6.6 -5.08725 0.359997987747192 0 0 -1
lala 27 0.075 first first 18 1 522 -6.6 -5.462249 0.299998044967651 0.2 0 1
lala 19 0.075 first second 3 1 524 -6.6 -5.478002 0.299998044967651 -0.2 1 -1
lala 21 0.00234375 second first 15 1 525 8 5.186095 0.319998025894165 0 1 -1
lala 20 0.001171875 first second 7 1 526 8 4.865002 0.299998044967651 -0.2 1 -1
lala 20 0.01875 second second 23 1 527 8 4.88375 0.359997987747192 0.2 1 1
lala 22 0.15 first first 5 1 528 6.6 5.0655 0.679997682571411 -0.2 1 1
lala 21 0.0046875 first first 9 1 529 -8 -5.586876 1.11999726295471 0 1 1
lala 27 0.6 first first 4 1 530 6.6 5.72475 0.23999810218811 -0.2 0 1
lala 28 0.3 first first 4 1 531 6.6 5.424749 0.179998159408569 -0.2 0 1
lala 21 0.001171875 second second 7 1 532 8 4.866174 0.359997987747192 -0.2 1 1
lala 29 0.3 second first 4 1 533 6.6 5.124749 0.599997758865356 -0.2 0 -1
lala 19 0.15 first second 14 1 534 8 5.280002 0.439997911453247 0 0 -1
lala 30 0.15 first first 4 1 536 6.6 5.274749 0.299998044967651 -0.2 0 1
lala 16 0.075 first second 16 1 537 -8 -6.105 1.67999696731567 0.2 0 -1
lala 20 0.0375 first second 1 1 538 -8 -5.127501 0.879997491836548 -0.2 1 -1
lala 27 0.15 second second 21 1 539 6.6 5.028001 0.699997663497925 0.2 1 1
lala 28 0.15 second first 21 1 540 6.6 4.878001 0.599997758865356 0.2 1 -1
lala 17 0.075 first first 16 1 541 -8 -6.18 0.739997625350952 0.2 0 1
lala 21 0.0375 first second 1 1 542 -8 -5.165001 0.339998006820679 -0.2 1 -1
lala 31 0.075 second second 4 1 543 6.6 5.199749 0.279998064041138 -0.2 0 1
lala 18 0.0375 first second 16 1 544 -8 -6.1425 2.7399959564209 0.2 0 -1
lala 22 0.0375 first first 1 1 545 -8 -5.202501 0.979997396469116 -0.2 1 1
lala 20 0.15 second second 22 1 547 8 4.81125 0.39999794960022 0.2 0 1
lala 16 0.01875 first first 13 1 548 6.6 4.053 0.719997644424438 0 1 1
lala 22 0.001171875 second second 15 1 549 8 5.187267 0.319998025894165 0 1 1
lala 20 0.0375 second second 3 1 550 -6.6 -5.515501 0.299998044967651 -0.2 1 1
lala 17 0.009375 second first 13 1 551 6.6 4.043625 0.339998006820679 0 1 -1
lala 19 0.01875 first first 16 1 552 -8 -6.161251 0.319998025894165 0.2 0 1
lala 23 0.075 first first 5 1 553 6.6 4.9905 1.87999677658081 -0.2 1 1
lala 20 0.075 second second 14 1 554 8 5.355001 0.259998083114624 0 0 1
lala 18 0.0046875 first second 13 1 555 6.6 4.048313 0.419997930526733 0 1 -1
lala 21 0.075 first first 22 1 556 8 4.73625 0.319998025894165 0.2 0 1
lala 24 0.0375 first first 10 1 557 -6.6 -5.12475 1.01999735832214 0 0 1
lala 21 0.01875 first first 11 1 559 -6.6 -4.718625 0.419997930526733 0 1 1
lala 21 0.01875 first first 3 1 560 -6.6 -5.496751 0.579997777938843 -0.2 1 1
lala 21 0.01875 second second 23 1 562 8 4.865 0.379997968673706 0.2 1 1
lala 27 0.001171875 first second 12 1 564 6.6 4.85639 0.479997873306274 0 0 -1
lala 22 0.01875 first first 23 1 565 8 4.84625 1.07999730110168 0.2 1 1
lala 20 0.009375 first first 16 1 566 -8 -6.151875 0.419997930526733 0.2 0 1
lala 25 0.01875 second first 10 1 568 -6.6 -5.105999 0.199998140335083 0 0 -1
lala 28 0.0375 first first 18 1 569 -6.6 -5.424749 0.499997854232788 0.2 0 1
lala 26 0.00234375 second second 8 1 570 -8 -5.624532 0.979997396469116 0 0 1
lala 22 0.075 first second 22 1 572 8 4.661251 0.279998064041138 0.2 0 -1
lala 22 0.009375 first second 11 1 573 -6.6 -4.70925 0.939997434616089 0 1 -1
lala 22 0.01875 first first 3 1 575 -6.6 -5.478001 0.419997930526733 -0.2 1 1
lala 21 0.075 second second 19 1 577 -6.6 -6.0405 0.199998140335083 0.2 1 1
lala 26 0.009375 second first 10 1 578 -6.6 -5.115375 0.479997873306274 0 0 -1
lala 23 0.01875 second first 1 1 579 -8 -5.183751 0.419997930526733 -0.2 1 -1
lala 23 0.0046875 first first 11 1 580 -6.6 -4.713937 0.419997930526733 0 1 1
lala 29 0.0375 first first 18 1 582 -6.6 -5.387249 0.419997930526733 0.2 0 1
lala 23 0.0375 second first 22 1 583 8 4.69875 0.339998006820679 0.2 0 -1
lala 19 0.0046875 second first 13 1 584 6.6 4.053 0.379997968673706 0 1 -1
lala 24 0.075 first second 5 1 585 6.6 4.915501 0.459997892379761 -0.2 1 -1
lala 24 0.00234375 first second 11 1 588 -6.6 -4.711594 0.379997968673706 0 1 -1
lala 21 0.0375 second first 14 1 589 8 5.317502 0.199998140335083 0 0 -1
lala 23 0.01875 second second 3 1 590 -6.6 -5.459251 0.379997968673706 -0.2 1 1
lala 25 0.001171875 second first 11 1 591 -6.6 -4.712766 0.319998025894165 0 1 -1
lala 30 0.0375 first second 18 1 593 -6.6 -5.34975 1.55999684333801 0.2 0 -1
lala 22 0.01875 first first 14 1 594 8 5.336252 2.75999593734741 0 0 1
lala 25 0.0375 second first 5 1 595 6.6 4.953001 0.199998140335083 -0.2 1 -1
lala 29 0.075 first first 21 1 596 6.6 4.953001 0.419997930526733 0.2 1 1
lala 22 0.0375 first first 19 1 597 -6.6 -6.003 0.339998006820679 0.2 1 1
lala 24 0.009375 first first 1 1 598 -8 -5.193126 0.359997987747192 -0.2 1 1
lala 24 0.0375 second second 22 1 599 8 4.73625 0.339998006820679 0.2 0 1
lala 24 0.0375 first first 17 1 600 -8 -6.68375 0.159998178482056 0.2 1 1
lala 23 0.009375 second first 14 1 603 8 5.326877 0.299998044967651 0 0 -1
lala 21 0.009375 second second 16 1 604 -8 -6.1425 0.379997968673706 0.2 0 1
lala 24 0.0375 second second 3 1 605 -6.6 -5.421751 1.83999681472778 -0.2 1 1
lala 25 0.075 first first 3 1 606 -6.6 -5.346751 0.799997568130493 -0.2 1 1
lala 24 0.0046875 second first 14 1 607 8 5.331564 2.37999629974365 0 0 -1
lala 25 0.01875 first second 22 1 608 8 4.7175 0.659997701644897 0.2 0 -1
lala 31 0.01875 second first 18 1 609 -6.6 -5.3685 0.779997587203979 0.2 0 -1
lala 25 0.0046875 first first 14 1 610 8 5.336251 0.319998025894165 0 0 1
lala 32 0.075 second second 4 1 611 6.6 5.12475 0.39999794960022 -0.2 0 1
lala 22 0.009375 second second 16 1 612 -8 -6.133125 2.11999654769897 0.2 0 1
lala 23 0.01875 first first 16 1 613 -8 -6.114375 0.559997797012329 0.2 0 1
lala 22 0.00234375 second second 9 1 614 -8 -5.584532 0.199998140335083 0 1 1
lala 26 0.001171875 first second 11 1 615 -6.6 -4.713938 0.299998044967651 0 1 -1
lala 30 0.0375 first second 21 1 618 6.6 4.915501 0.439997911453247 0.2 1 -1
lala 24 0.0375 first second 16 1 619 -8 -6.076875 1.03999733924866 0.2 0 -1
lala 25 0.075 first first 17 1 621 -8 -6.60875 0.559997797012329 0.2 1 1
lala 26 0.15 first first 17 1 622 -8 -6.45875 0.519997835159302 0.2 1 1
lala 25 0.01875 first first 16 1 623 -8 -6.095625 0.559997797012329 0.2 0 1
lala 26 0.00234375 first second 14 1 629 8 5.333908 0.479997873306274 0 0 -1
lala 25 0.0046875 second first 1 1 630 -8 -5.188439 0.339998006820679 -0.2 1 -1
lala 33 0.075 first second 4 1 631 6.6 5.04975 0.499997854232788 -0.2 0 -1
lala 26 0.15 first first 3 1 632 -6.6 -5.196751 0.679997682571411 -0.2 1 1
lala 26 0.009375 first first 16 1 633 -8 -6.08625 0.839997529983521 0.2 0 1
lala 26 0.00234375 second second 1 1 637 -8 -5.190783 0.279998064041138 -0.2 1 1
lala 27 0.009375 first first 16 1 639 -8 -6.076875 0.439997911453247 0.2 0 1
lala 26 0.0375 first second 5 1 640 6.6 4.9905 1.05999732017517 -0.2 1 -1
lala 32 0.01875 second first 18 1 641 -6.6 -5.38725 0.279998064041138 0.2 0 -1
lala 27 0.001171875 first first 14 1 643 8 5.33508 0.259998083114624 0 0 1
lala 20 0.0046875 first second 13 1 648 6.6 4.057687 0.299998044967651 0 1 -1
lala 23 0.0375 first first 23 1 650 8 4.80875 0.499997854232788 0.2 1 1
lala 33 0.01875 second first 18 1 651 -6.6 -5.406 0.559997797012329 0.2 0 -1
lala 21 0.009375 first second 13 1 652 6.6 4.067062 0.839997529983521 0 1 -1
lala 27 0.009375 first first 10 1 655 -6.6 -5.12475 0.439997911453247 0 0 1
lala 27 0.0375 second second 5 1 656 6.6 5.028 0.339998006820679 -0.2 1 1
lala 27 0.3 second second 17 1 658 -8 -6.15875 0.459997892379761 0.2 1 1
lala 28 0.0046875 first first 10 1 659 -6.6 -5.120062 0.459997892379761 0 0 1
lala 23 0.0375 first first 19 1 663 -6.6 -5.9655 0.339998006820679 0.2 1 1
lala 26 0.009375 second second 22 1 664 8 4.726875 0.599997758865356 0.2 0 1
lala 28 0.6 first first 17 1 665 -8 -5.55875 1.13999724388123 0.2 1 1
lala 34 0.0375 second second 18 1 667 -6.6 -5.4435 0.519997835159302 0.2 0 1
lala 31 0.01875 second second 21 1 668 6.6 4.934251 0.919997453689575 0.2 1 1
lala 29 0.0046875 first first 10 1 671 -6.6 -5.115375 0.299998044967651 0 0 1
lala 24 0.0375 second second 19 1 673 -6.6 -5.928 0.559997797012329 0.2 1 1
lala 27 0.3 second second 3 1 674 -6.6 -4.896751 0.759997606277466 -0.2 1 1
lala 28 0.01875 first first 5 1 677 6.6 5.00925 0.339998006820679 -0.2 1 1
lala 35 0.01875 first first 18 1 678 -6.6 -5.42475 1.25999712944031 0.2 0 1
lala 29 1.2 second first 17 1 679 -8 -4.35875 1.21999716758728 0.2 1 -1
lala 24 0.075 first second 23 1 680 8 4.73375 0.479997873306274 0.2 1 -1
lala 30 0.6 first second 17 1 681 -8 -4.95875 2.17999649047852 0.2 1 -1
lala 30 0.0046875 first first 10 1 685 -6.6 -5.110688 0.719997644424438 0 0 1
lala 27 0.0046875 second second 22 1 686 8 4.722188 0.219998121261597 0.2 0 1
lala 28 0.6 first first 3 1 687 -6.6 -4.296751 2.13999652862549 -0.2 1 1
lala 28 0.009375 first second 16 1 688 -8 -6.0675 1.55999684333801 0.2 0 -1
lala 34 0.0375 second second 4 1 691 6.6 5.08725 1.37999701499939 -0.2 0 1
lala 32 0.009375 second second 21 1 695 6.6 4.924876 0.439997911453247 0.2 1 1
lala 25 0.0375 first first 23 1 697 8 4.77125 0.499997854232788 0.2 1 1
lala 29 0.0046875 second second 16 1 702 -8 -6.072187 0.219998121261597 0.2 0 1
lala 33 0.009375 first first 21 1 703 6.6 4.915501 0.299998044967651 0.2 1 1
lala 29 1.2 second first 3 1 704 -6.6 -3.096751 0.439997911453247 -0.2 1 -1
lala 34 0.009375 second first 21 1 705 6.6 4.906126 0.319998025894165 0.2 1 -1
lala 25 0.075 first first 19 1 706 -6.6 -5.853001 0.199998140335083 0.2 1 1
lala 35 0.0046875 second second 21 1 707 6.6 4.910813 0.779997587203979 0.2 1 1
lala 26 0.01875 first first 23 1 708 8 4.7525 0.319998025894165 0.2 1 1
lala 26 0.15 second second 19 1 709 -6.6 -5.703001 0.299998044967651 0.2 1 1
lala 27 0.001171875 first first 1 1 713 -8 -5.18961 1.63999700546265 -0.2 1 1
lala 27 0.3 second second 19 1 715 -6.6 -5.403 0.259998083114624 0.2 1 1
lala 28 0.0046875 second first 22 1 717 8 4.717501 0.679997682571411 0.2 0 -1
lala 28 0.6 second first 19 1 718 -6.6 -4.803 0.23999810218811 0.2 1 -1
lala 31 0.6 first second 17 1 720 -8 -5.55875 0.359997987747192 0.2 1 -1
lala 29 0.00234375 first second 22 1 721 8 4.719844 0.39999794960022 0.2 0 -1
lala 30 0.6 first second 3 1 722 -6.6 -3.696751 1.19999718666077 -0.2 1 -1
lala 28 0.001171875 second first 1 1 723 -8 -5.188438 0.279998064041138 -0.2 1 -1
lala 30 0.00234375 second second 22 1 727 8 4.722188 0.339998006820679 0.2 0 1
lala 29 0.01875 first first 5 1 728 6.6 4.9905 0.839997529983521 -0.2 1 1
lala 30 0.01875 first second 5 1 730 6.6 4.97175 0.39999794960022 -0.2 1 -1
lala 29 0.3 second second 19 1 743 -6.6 -5.103001 0.319998025894165 0.2 1 1
lala 31 0.009375 second first 5 1 744 6.6 4.981125 0.179998159408569 -0.2 1 -1
lala 32 0.6 first first 17 1 746 -8 -6.15875 0.299998044967651 0.2 1 1
lala 30 0.15 first first 19 1 747 -6.6 -4.953001 0.99999737739563 0.2 1 1
lala 31 0.15 first second 19 1 750 -6.6 -4.803 0.459997892379761 0.2 1 -1
lala 31 0.6 first first 3 1 754 -6.6 -4.296751 0.919997453689575 -0.2 1 1
lala 32 0.075 first second 19 1 755 -6.6 -4.878 0.61999773979187 0.2 1 -1
lala 33 0.3 second first 17 1 756 -8 -5.85875 0.39999794960022 0.2 1 -1
lala 33 0.075 first first 19 1 759 -6.6 -4.953 0.359997987747192 0.2 1 1
lala 32 0.009375 first second 5 1 760 6.6 4.9905 3.43999528884888 -0.2 1 -1
lala 34 0.0375 first second 19 1 762 -6.6 -4.9155 0.499997854232788 0.2 1 -1
lala 34 0.15 second second 17 1 769 -8 -6.00875 0.459997892379761 0.2 1 1
lala 35 0.01875 first first 19 1 774 -6.6 -4.93425 0.599997758865356 0.2 1 1
lala 27 0.01875 first second 23 1 776 8 4.73375 1.27999711036682 0.2 1 -1
lala 28 0.009375 second second 23 1 782 8 4.743125 0.599997758865356 0.2 1 1
lala 33 0.009375 first first 5 1 789 6.6 4.999875 0.599997758865356 -0.2 1 1
lala 35 0.075 first first 17 1 793 -8 -5.93375 0.759997606277466 0.2 1 1
lala 35 0.01875 first second 4 1 796 6.6 5.0685 0.759997606277466 -0.2 0 -1
lala 29 0.0046875 first first 23 1 798 8 4.738438 2.33999633789063 0.2 1 1
lala 34 0.0046875 first first 5 1 806 6.6 4.995188 0.359997987747192 -0.2 1 1
lala 35 0.0046875 second second 5 1 809 6.6 4.9905 0.359997987747192 -0.2 1 1
lala 32 0.3 first second 3 1 811 -6.6 -3.996751 0.279998064041138 -0.2 1 -1
lala 30 0.0046875 second second 23 1 812 8 4.73375 1.49999690055847 0.2 1 1
lala 30 0.00234375 first first 16 1 815 -8 -6.069844 0.739997625350952 0.2 0 1
lala 31 0.0046875 first second 23 1 821 8 4.729063 4.11999464035034 0.2 1 -1
lala 32 0.00234375 first first 23 1 822 8 4.731407 0.699997663497925 0.2 1 1
lala 33 0.15 second first 3 1 824 -6.6 -4.146751 0.299998044967651 -0.2 1 -1
lala 34 0.15 first second 3 1 826 -6.6 -4.296751 0.339998006820679 -0.2 1 -1
lala 35 0.15 second second 3 1 831 -6.6 -4.446751 0.459997892379761 -0.2 1 1
