subject PestNr Step_Size_OnTrial Response_Interval Pest_Interval Condition block trial velH velH_Pest Reaction_Time velH_Subject Start_Above Response_MotionEstimation
lala 1 1.2 first first 17 1 1 -8 -10.64 6.64001703262329 0.25 1 1
lala 1 1.2 first first 7 1 2 8 10.64 0.459997892379761 -0.25 1 1
lala 1 1.2 first first 13 1 3 6.6 8.778 0.39999794960022 0 1 1
lala 1 1.2 second second 11 1 4 -6.6 -8.778 0.299998044967651 0 1 1
lala 1 1.2 second second 10 1 5 -6.6 -4.356 0.879997491836548 0 0 1
lala 1 1.2 first first 5 1 6 6.6 8.778 0.379997968673706 -0.25 1 1
lala 1 1.2 second first 20 1 7 6.6 4.356 0.299998044967651 0.25 0 -1
lala 2 1.2 second second 13 1 8 6.6 7.578 0.319998025894165 0 1 1
lala 1 1.2 second second 14 1 9 8 5.28 0.499997854232788 0 0 1
lala 1 1.2 second second 23 1 10 8 10.64 0.23999810218811 0.25 1 1
lala 1 1.2 first first 19 1 11 -6.6 -8.778 0.339998006820679 0.25 1 1
lala 1 1.2 first first 12 1 12 6.6 4.356 0.539997816085815 0 0 1
lala 2 1.2 second first 12 1 13 6.6 3.156 0.319998025894165 0 0 -1
lala 1 1.2 first second 16 1 14 -8 -5.28 0.379997968673706 0.25 0 -1
lala 2 1.2 second second 17 1 15 -8 -9.440001 0.339998006820679 0.25 1 1
lala 3 1.2 second second 13 1 16 6.6 6.378 0.339998006820679 0 1 1
lala 3 1.2 second second 17 1 17 -8 -8.240001 0.299998044967651 0.25 1 1
lala 2 1.2 second first 14 1 18 8 4.08 0.279998064041138 0 0 -1
lala 1 1.2 second first 8 1 19 -8 -5.28 0.299998044967651 0 0 -1
lala 2 1.2 second second 23 1 20 8 9.440001 0.279998064041138 0.25 1 1
lala 2 1.2 first first 11 1 21 -6.6 -7.578 0.359997987747192 0 1 1
lala 1 1.2 first first 1 1 22 -8 -10.64 0.319998025894165 -0.25 1 1
lala 1 1.2 first first 3 1 23 -6.6 -8.778 0.359997987747192 -0.25 1 1
lala 1 1.2 second second 21 1 24 6.6 8.778 0.339998006820679 0.25 1 1
lala 1 1.2 first first 6 1 25 8 5.28 0.499997854232788 -0.25 0 1
lala 1 1.2 first second 2 1 26 -6.6 -4.356 0.339998006820679 -0.25 0 -1
lala 2 1.2 first first 19 1 27 -6.6 -7.578 0.319998025894165 0.25 1 1
lala 2 1.2 first first 21 1 28 6.6 7.578 0.23999810218811 0.25 1 1
lala 4 1.2 second first 13 1 29 6.6 5.178 0.219998121261597 0 1 -1
lala 3 1.2 first first 19 1 30 -6.6 -6.378 0.199998140335083 0.25 1 1
lala 1 1.2 first first 9 1 31 -8 -10.64 0.319998025894165 0 1 1
lala 2 1.2 first first 20 1 32 6.6 5.556 10.3001008033752 0.25 0 1
lala 2 1.2 second first 8 1 33 -8 -6.48 0.459997892379761 0 0 -1
lala 1 1.2 first first 15 1 34 8 10.64 0.259998083114624 0 1 1
lala 2 1.2 second first 15 1 35 8 9.440001 0.179998159408569 0 1 -1
lala 3 1.2 first first 15 1 36 8 10.64 0.259998083114624 0 1 1
lala 4 1.2 first first 17 1 37 -8 -7.040001 0.279998064041138 0.25 1 1
lala 2 1.2 first first 3 1 38 -6.6 -7.578 0.23999810218811 -0.25 1 1
lala 3 1.2 first first 8 1 39 -8 -7.68 0.259998083114624 0 0 1
lala 1 1.2 first first 0 1 40 -8 -5.28 0.939997434616089 -0.25 0 1
lala 1 1.2 second first 4 1 41 6.6 4.356 1.41999697685242 -0.25 0 -1
lala 2 1.2 first first 16 1 42 -8 -6.48 0.299998044967651 0.25 0 1
lala 3 1.2 first second 21 1 43 6.6 6.378 0.359997987747192 0.25 1 -1
lala 2 1.2 first second 4 1 44 6.6 5.556 0.359997987747192 -0.25 0 -1
lala 1 1.2 first first 22 1 45 8 5.28 0.199998140335083 0.25 0 1
lala 5 2.4 second first 17 1 46 -8 -4.640001 0.179998159408569 0.25 1 -1
lala 5 0.6 second second 13 1 47 6.6 5.778 0.719997644424438 0 1 1
lala 2 1.2 second second 7 1 48 8 9.440001 0.219998121261597 -0.25 1 1
lala 3 1.2 first second 12 1 49 6.6 4.356 0.339998006820679 0 0 -1
lala 6 1.2 second second 17 1 50 -8 -5.840001 0.23999810218811 0.25 1 1
lala 2 1.2 second second 9 1 51 -8 -9.440001 0.339998006820679 0 1 1
lala 2 1.2 first second 0 1 52 -8 -4.08 0.259998083114624 -0.25 0 -1
lala 3 1.2 second second 14 1 53 8 5.28 0.279998064041138 0 0 1
lala 4 1.2 second second 21 1 54 6.6 7.578 0.279998064041138 0.25 1 1
lala 5 0.6 second first 21 1 55 6.6 6.978 0.199998140335083 0.25 1 -1
lala 6 0.3 first first 21 1 56 6.6 7.278 0.279998064041138 0.25 1 1
lala 3 1.2 second first 3 1 57 -6.6 -6.378 0.199998140335083 -0.25 1 -1
lala 3 1.2 first first 7 1 58 8 8.240001 0.359997987747192 -0.25 1 1
lala 4 1.2 second first 19 1 59 -6.6 -5.178 0.459997892379761 0.25 1 -1
lala 6 0.3 first first 13 1 60 6.6 5.478 0.259998083114624 0 1 1
lala 2 1.2 second second 1 1 61 -8 -9.440001 0.259998083114624 -0.25 1 1
lala 2 1.2 first first 2 1 62 -6.6 -5.556 0.359997987747192 -0.25 0 1
lala 7 0.3 second first 13 1 63 6.6 5.178 0.23999810218811 0 1 -1
lala 7 0.6 second first 17 1 64 -8 -5.240001 0.339998006820679 0.25 1 -1
lala 2 1.2 second first 22 1 65 8 4.08 0.439997911453247 0.25 0 -1
lala 3 1.2 first second 23 1 66 8 8.240001 0.319998025894165 0.25 1 -1
lala 3 1.2 first first 16 1 67 -8 -5.280001 0.299998044967651 0.25 0 1
lala 3 1.2 first first 2 1 68 -6.6 -4.356 0.479997873306274 -0.25 0 1
lala 4 1.2 second second 23 1 69 8 9.440001 0.219998121261597 0.25 1 1
lala 7 0.15 first first 21 1 70 6.6 7.128 0.259998083114624 0.25 1 1
lala 3 1.2 first second 0 1 71 -8 -5.28 0.299998044967651 -0.25 0 -1
lala 3 1.2 first second 20 1 72 6.6 4.356 0.279998064041138 0.25 0 -1
lala 2 1.2 first second 10 1 73 -6.6 -3.156 0.279998064041138 0 0 -1
lala 4 1.2 first first 0 1 74 -8 -6.48 0.319998025894165 -0.25 0 1
lala 2 1.2 first second 5 1 75 6.6 7.578 0.23999810218811 -0.25 1 -1
lala 3 1.2 first first 4 1 76 6.6 6.756 0.299998044967651 -0.25 0 1
lala 3 1.2 first first 1 1 77 -8 -8.240001 0.199998140335083 -0.25 1 1
lala 5 0.6 first first 19 1 78 -6.6 -5.778 0.499997854232788 0.25 1 1
lala 1 1.2 first second 18 1 79 -6.6 -4.356 0.319998025894165 0.25 0 -1
lala 3 1.2 second first 10 1 80 -6.6 -4.356 0.23999810218811 0 0 -1
lala 4 1.2 first second 3 1 81 -6.6 -7.578 0.319998025894165 -0.25 1 -1
lala 4 1.2 first second 14 1 82 8 4.08 0.319998025894165 0 0 -1
lala 3 1.2 first first 9 1 83 -8 -8.240001 0.299998044967651 0 1 1
lala 3 1.2 first first 11 1 84 -6.6 -6.378 0.299998044967651 0 1 1
lala 4 1.2 second first 4 1 85 6.6 5.556 0.23999810218811 -0.25 0 -1
lala 4 1.2 first first 9 1 86 -8 -7.040001 0.259998083114624 0 1 1
lala 4 1.2 first first 11 1 87 -6.6 -5.178 0.299998044967651 0 1 1
lala 5 2.4 second first 9 1 88 -8 -4.640001 0.199998140335083 0 1 -1
lala 5 0.6 second second 0 1 89 -8 -5.88 0.259998083114624 -0.25 0 1
lala 8 0.15 second second 21 1 90 6.6 6.978 0.819997549057007 0.25 1 1
lala 5 2.4 second first 11 1 91 -6.6 -2.778 0.279998064041138 0 1 -1
lala 6 0.6 first first 0 1 92 -8 -5.28 0.419997930526733 -0.25 0 1
lala 5 0.6 second second 23 1 93 8 8.84 0.219998121261597 0.25 1 1
lala 4 1.2 second first 16 1 94 -8 -4.080001 0.259998083114624 0.25 0 -1
lala 4 1.2 second second 7 1 95 8 7.040001 0.599997758865356 -0.25 1 1
lala 4 1.2 second first 12 1 96 6.6 5.556 1.15999722480774 0 0 -1
lala 2 1.2 first second 6 1 97 8 4.08 0.339998006820679 -0.25 0 -1
lala 3 1.2 first first 22 1 98 8 5.28 0.339998006820679 0.25 0 1
lala 4 1.2 first first 1 1 99 -8 -7.040001 0.259998083114624 -0.25 1 1
lala 4 1.2 second first 2 1 100 -6.6 -3.156 0.279998064041138 -0.25 0 -1
lala 5 0.6 first second 2 1 101 -6.6 -3.756 0.379997968673706 -0.25 0 -1
lala 5 2.4 first first 1 1 102 -8 -4.640001 0.299998044967651 -0.25 1 1
lala 5 2.4 first first 12 1 103 6.6 7.956 0.219998121261597 0 0 1
lala 5 0.6 first second 16 1 104 -8 -4.680001 0.259998083114624 0.25 0 -1
lala 9 0.15 first first 21 1 105 6.6 6.828 0.359997987747192 0.25 1 1
lala 4 1.2 first first 10 1 106 -6.6 -5.556 0.259998083114624 0 0 1
lala 4 1.2 first first 20 1 107 6.6 5.556 0.319998025894165 0.25 0 1
lala 4 1.2 second second 15 1 108 8 9.440001 0.23999810218811 0 1 1
lala 5 1.2 second second 15 1 109 8 8.240001 0.259998083114624 0 1 1
lala 8 0.3 second second 17 1 110 -8 -5.540001 0.159998178482056 0.25 1 1
lala 6 1.2 second first 11 1 111 -6.6 -3.978 0.219998121261597 0 1 -1
lala 9 0.15 first second 17 1 112 -8 -5.390001 0.279998064041138 0.25 1 -1
lala 6 1.2 first first 12 1 113 6.6 6.756 0.39999794960022 0 0 1
lala 6 0.3 second second 19 1 114 -6.6 -5.478 0.299998044967651 0.25 1 1
lala 8 0.15 first first 13 1 115 6.6 5.328 0.499997854232788 0 1 1
lala 6 1.2 second second 9 1 116 -8 -5.840001 0.23999810218811 0 1 1
lala 7 1.2 second second 11 1 117 -6.6 -5.178 0.279998064041138 0 1 1
lala 5 0.6 first first 20 1 118 6.6 4.956 0.299998044967651 0.25 0 1
lala 5 0.6 second second 10 1 119 -6.6 -4.956 0.199998140335083 0 0 1
lala 8 0.6 second second 11 1 120 -6.6 -4.578001 0.219998121261597 0 1 1
lala 5 1.2 first first 3 1 121 -6.6 -8.778 0.179998159408569 -0.25 1 1
lala 7 1.2 second second 12 1 122 6.6 5.556 0.319998025894165 0 0 1
lala 5 0.6 first first 4 1 123 6.6 6.156 0.179998159408569 -0.25 0 1
lala 7 0.6 second second 9 1 124 -8 -5.240001 0.379997968673706 0 1 1
lala 6 0.6 first first 2 1 125 -6.6 -4.356 0.299998044967651 -0.25 0 1
lala 6 0.6 second first 16 1 126 -8 -5.280001 0.459997892379761 0.25 0 -1
lala 6 0.6 first second 10 1 127 -6.6 -4.356 0.519997835159302 0 0 -1
lala 7 0.3 first first 19 1 128 -6.6 -5.178 0.259998083114624 0.25 1 1
lala 3 1.2 second second 5 1 129 6.6 8.778 0.39999794960022 -0.25 1 1
lala 7 0.6 first first 16 1 130 -8 -5.880001 0.279998064041138 0.25 0 1
lala 3 1.2 first second 6 1 131 8 5.28 0.299998044967651 -0.25 0 -1
lala 7 0.6 second second 0 1 132 -8 -4.68 0.279998064041138 -0.25 0 1
lala 4 1.2 first second 22 1 133 8 4.08 0.259998083114624 0.25 0 -1
lala 10 0.075 first first 17 1 134 -8 -5.465001 0.219998121261597 0.25 1 1
lala 5 0.6 second first 14 1 135 8 4.68 0.199998140335083 0 0 -1
lala 4 1.2 second second 5 1 136 6.6 7.578 0.259998083114624 -0.25 1 1
lala 7 0.3 second second 2 1 137 -6.6 -4.056 0.299998044967651 -0.25 0 1
lala 7 0.3 second first 10 1 138 -6.6 -4.656 0.219998121261597 0 0 -1
lala 9 0.075 first second 13 1 139 6.6 5.253 0.299998044967651 0 1 -1
lala 4 1.2 first first 8 1 140 -8 -6.48 0.179998159408569 0 0 1
lala 11 0.0375 first first 17 1 141 -8 -5.427501 0.319998025894165 0.25 1 1
lala 6 0.6 first first 14 1 142 8 5.28 0.23999810218811 0 0 1
lala 5 1.2 first second 8 1 143 -8 -5.280001 0.319998025894165 0 0 -1
lala 9 0.6 first second 11 1 144 -6.6 -3.978001 0.259998083114624 0 1 -1
lala 8 0.3 first second 19 1 145 -6.6 -4.878 0.279998064041138 0.25 1 -1
lala 5 1.2 second second 5 1 146 6.6 6.378 0.219998121261597 -0.25 1 1
lala 8 0.3 first first 2 1 147 -6.6 -3.756 1.81999683380127 -0.25 0 1
lala 6 2.4 first first 15 1 148 8 5.840001 0.199998140335083 0 1 1
lala 9 0.3 second second 2 1 149 -6.6 -3.456 0.219998121261597 -0.25 0 1
lala 8 1.2 first second 0 1 150 -8 -3.48 0.279998064041138 -0.25 0 -1
lala 10 0.0375 first first 13 1 151 6.6 5.2905 0.179998159408569 0 1 1
lala 6 0.3 second second 4 1 152 6.6 5.855999 0.23999810218811 -0.25 0 1
lala 6 4.8 first second 1 1 153 -8 0.1599994 1.15999722480774 -0.25 1 -1
lala 6 0.6 second second 8 1 154 -8 -5.880001 0.859997510910034 0 0 1
lala 10 0.6 second first 2 1 155 -6.6 -2.856 0.179998159408569 -0.25 0 -1
lala 10 0.3 second first 11 1 156 -6.6 -4.278001 1.57999682426453 0 1 -1
lala 7 0.3 first first 4 1 157 6.6 5.555999 0.279998064041138 -0.25 0 1
lala 7 4.8 second first 15 1 158 8 1.04 0.559997797012329 0 1 -1
lala 8 0.6 second second 9 1 159 -8 -4.640001 1.59999680519104 0 1 1
lala 8 0.3 first first 10 1 160 -6.6 -4.956 0.599997758865356 0 0 1
lala 7 2.4 first second 1 1 161 -8 -2.240001 0.879997491836548 -0.25 1 -1
lala 9 0.15 second second 10 1 162 -6.6 -4.806 1.03999733924866 0 0 1
lala 5 0.6 first first 22 1 163 8 4.68 0.519997835159302 0.25 0 1
lala 12 0.0375 second second 17 1 164 -8 -5.390001 0.559997797012329 0.25 1 1
lala 6 0.6 first first 3 1 165 -6.6 -8.177999 0.219998121261597 -0.25 1 1
lala 4 1.2 second second 6 1 166 8 6.48 0.439997911453247 -0.25 0 1
lala 13 0.0375 first second 17 1 167 -8 -5.352501 0.739997625350952 0.25 1 -1
lala 8 2.4 first second 15 1 168 8 3.440001 0.279998064041138 0 1 -1
lala 6 0.6 first second 20 1 169 6.6 4.356 0.299998044967651 0.25 0 -1
lala 6 2.4 second first 5 1 170 6.6 3.978 1.21999716758728 -0.25 1 -1
lala 11 0.01875 second second 13 1 171 6.6 5.27175 0.299998044967651 0 1 1
lala 7 0.3 first first 20 1 172 6.6 4.656 0.279998064041138 0.25 0 1
lala 5 2.4 first second 7 1 173 8 4.640001 0.299998044967651 -0.25 1 -1
lala 14 0.01875 second second 17 1 174 -8 -5.371252 0.23999810218811 0.25 1 1
lala 11 0.3 second first 11 1 175 -6.6 -4.578001 0.23999810218811 0 1 -1
lala 2 1.2 first first 18 1 176 -6.6 -5.556 0.179998159408569 0.25 0 1
lala 7 1.2 first first 5 1 177 6.6 5.178 0.339998006820679 -0.25 1 1
lala 7 0.3 first second 14 1 178 8 4.98 0.279998064041138 0 0 -1
lala 15 0.009375 first first 17 1 179 -8 -5.361876 0.499997854232788 0.25 1 1
lala 9 0.6 first second 0 1 180 -8 -4.08 0.299998044967651 -0.25 0 -1
lala 7 0.6 first first 3 1 181 -6.6 -7.578 0.199998140335083 -0.25 1 1
lala 12 0.3 second second 11 1 182 -6.6 -4.878001 1.29999709129334 0 1 1
lala 8 0.3 second second 4 1 183 6.6 5.255999 0.139998197555542 -0.25 0 1
lala 16 0.009375 first first 17 1 184 -8 -5.352501 0.659997701644897 0.25 1 1
lala 8 0.15 second first 20 1 185 6.6 4.506 0.459997892379761 0.25 0 -1
lala 7 0.3 second second 8 1 186 -8 -5.58 1.25999712944031 0 0 1
lala 13 0.15 second second 11 1 187 -6.6 -4.728001 0.159998178482056 0 1 1
lala 10 0.15 first first 10 1 188 -6.6 -4.656 0.199998140335083 0 0 1
lala 6 0.3 second first 22 1 189 8 4.38 0.179998159408569 0.25 0 -1
lala 14 0.15 second first 11 1 190 -6.6 -4.578001 0.23999810218811 0 1 -1
lala 8 0.15 first first 14 1 191 8 5.13 0.219998121261597 0 0 1
lala 15 0.075 second second 11 1 192 -6.6 -4.653001 0.23999810218811 0 1 1
lala 8 1.2 second second 12 1 193 6.6 4.356 0.279998064041138 0 0 1
lala 9 0.075 second second 14 1 194 8 5.055 0.259998083114624 0 0 1
lala 11 0.3 first second 2 1 195 -6.6 -3.156 0.23999810218811 -0.25 0 -1
lala 9 0.075 second first 20 1 196 6.6 4.581 0.319998025894165 0.25 0 -1
lala 9 2.4 second second 15 1 197 8 5.840001 0.61999773979187 0 1 1
lala 8 0.3 first first 8 1 198 -8 -5.28 0.339998006820679 0 0 1
lala 9 0.3 first first 8 1 199 -8 -4.98 0.179998159408569 0 0 1
lala 9 0.6 second second 4 1 200 6.6 4.655999 0.339998006820679 -0.25 0 1
lala 10 0.6 second first 0 1 201 -8 -4.68 0.459997892379761 -0.25 0 -1
lala 3 1.2 first first 18 1 202 -6.6 -4.356 0.379997968673706 0.25 0 1
lala 8 2.4 second first 1 1 203 -8 -4.640001 0.279998064041138 -0.25 1 -1
lala 7 0.15 first first 22 1 204 8 4.53 0.159998178482056 0.25 0 1
lala 12 0.01875 first first 13 1 205 6.6 5.253 0.319998025894165 0 1 1
lala 9 0.15 first second 19 1 206 -6.6 -5.028 0.279998064041138 0.25 1 -1
lala 10 0.3 second second 21 1 207 6.6 6.528 0.279998064041138 0.25 1 1
lala 8 0.6 first first 3 1 208 -6.6 -6.978 0.159998178482056 -0.25 1 1
lala 11 0.6 second second 21 1 209 6.6 5.928 0.359997987747192 0.25 1 1
lala 6 1.2 first first 7 1 210 8 5.840001 0.219998121261597 -0.25 1 1
lala 11 0.6 first first 0 1 211 -8 -5.28 0.199998140335083 -0.25 0 1
lala 9 0.6 first second 9 1 212 -8 -4.040001 0.599997758865356 0 1 -1
lala 10 1.2 first second 4 1 213 6.6 3.455999 0.23999810218811 -0.25 0 -1
lala 12 0.3 first second 2 1 214 -6.6 -3.456 0.179998159408569 -0.25 0 -1
lala 10 0.075 second first 14 1 215 8 4.98 0.23999810218811 0 0 -1
lala 10 0.075 first second 20 1 216 6.6 4.656 0.279998064041138 0.25 0 -1
lala 12 1.2 first second 21 1 217 6.6 4.728 0.299998044967651 0.25 1 -1
lala 9 1.2 first first 3 1 218 -6.6 -5.778 0.199998140335083 -0.25 1 1
lala 7 0.6 first first 7 1 219 8 5.240001 0.159998178482056 -0.25 1 1
lala 10 1.2 second second 15 1 220 8 4.64 0.479997873306274 0 1 1
lala 8 0.075 second first 22 1 221 8 4.455 0.199998140335083 0.25 0 -1
lala 11 0.6 first second 4 1 222 6.6 4.055999 0.219998121261597 -0.25 0 -1
lala 13 0.3 second first 2 1 223 -6.6 -3.756 0.219998121261597 -0.25 0 -1
lala 11 0.0375 second second 14 1 224 8 5.0175 0.219998121261597 0 0 1
lala 10 0.3 first first 9 1 225 -8 -4.340002 0.199998140335083 0 1 1
lala 5 0.6 second second 6 1 226 8 5.88 0.599997758865356 -0.25 0 1
lala 8 0.3 second second 16 1 227 -8 -5.58 0.299998044967651 0.25 0 1
lala 11 1.2 second second 15 1 228 8 3.44 0.319998025894165 0 1 1
lala 10 0.15 second second 19 1 229 -6.6 -5.178 0.519997835159302 0.25 1 1
lala 6 0.6 first first 6 1 230 8 5.28 0.279998064041138 -0.25 0 1
lala 13 0.6 second second 21 1 231 6.6 5.328 0.179998159408569 0.25 1 1
lala 12 1.2 second first 15 1 232 8 2.24 0.139998197555542 0 1 -1
lala 16 0.0375 second second 11 1 233 -6.6 -4.615501 0.23999810218811 0 1 1
lala 4 1.2 second first 18 1 234 -6.6 -3.156 0.139998197555542 0.25 0 -1
lala 9 0.3 first second 16 1 235 -8 -5.28 0.299998044967651 0.25 0 -1
lala 5 0.6 second second 18 1 236 -6.6 -3.756 0.319998025894165 0.25 0 1
lala 9 2.4 second second 1 1 237 -8 -7.040001 0.179998159408569 -0.25 1 1
lala 10 0.6 second second 8 1 238 -8 -4.38 0.519997835159302 0 0 1
lala 11 0.075 second second 20 1 239 6.6 4.730999 0.219998121261597 0.25 0 1
lala 12 0.0375 second second 20 1 240 6.6 4.6935 0.279998064041138 0.25 0 1
lala 7 0.6 first first 6 1 241 8 4.68 0.319998025894165 -0.25 0 1
lala 13 0.01875 first first 13 1 242 6.6 5.23425 0.159998178482056 0 1 1
lala 6 0.6 first first 23 1 243 8 8.24 0.119998216629028 0.25 1 1
lala 8 1.2 second first 6 1 244 8 3.48 0.479997873306274 -0.25 0 -1
lala 12 0.6 second first 4 1 245 6.6 4.655999 1.15999722480774 -0.25 0 -1
lala 9 2.4 second first 12 1 246 6.6 1.956 0.159998178482056 0 0 -1
lala 6 0.3 second first 18 1 247 -6.6 -3.456 0.299998044967651 0.25 0 -1
lala 12 0.01875 second second 14 1 248 8 4.99875 1.21999716758728 0 0 1
lala 13 0.6 first second 15 1 249 8 2.84 0.539997816085815 0 1 -1
lala 8 0.6 first first 5 1 250 6.6 4.578001 0.299998044967651 -0.25 1 1
lala 11 0.15 first second 10 1 251 -6.6 -4.506 0.23999810218811 0 0 -1
lala 14 0.6 first second 2 1 252 -6.6 -4.356 0.339998006820679 -0.25 0 -1
lala 17 0.0375 second first 11 1 253 -6.6 -4.578001 0.479997873306274 0 1 -1
lala 14 0.0375 second second 13 1 254 6.6 5.19675 0.299998044967651 0 1 1
lala 10 1.2 first second 12 1 255 6.6 3.156 0.799997568130493 0 0 -1
lala 10 2.4 second first 3 1 256 -6.6 -3.378 0.119998216629028 -0.25 1 -1
lala 7 0.6 first first 23 1 257 8 7.64 0.139998197555542 0.25 1 1
lala 9 0.0375 second second 22 1 258 8 4.4925 0.259998083114624 0.25 0 1
lala 12 0.075 second first 10 1 259 -6.6 -4.581 0.199998140335083 0 0 -1
lala 8 0.6 first first 7 1 260 8 4.640001 0.179998159408569 -0.25 1 1
lala 15 0.075 second second 13 1 261 6.6 5.12175 0.319998025894165 0 1 1
lala 14 0.3 second second 21 1 262 6.6 5.027999 0.479997873306274 0.25 1 1
lala 9 0.6 first first 6 1 263 8 4.08 0.219998121261597 -0.25 0 1
lala 10 1.2 second second 1 1 264 -8 -5.840001 0.179998159408569 -0.25 1 1
lala 13 0.6 first first 4 1 265 6.6 5.255999 0.199998140335083 -0.25 0 1
lala 11 1.2 second second 1 1 266 -8 -4.640001 0.159998178482056 -0.25 1 1
lala 13 0.075 second second 10 1 267 -6.6 -4.656 0.199998140335083 0 0 1
lala 11 1.2 first second 12 1 268 6.6 4.356 0.519997835159302 0 0 -1
lala 11 1.2 first second 3 1 269 -6.6 -4.578 1.17999720573425 -0.25 1 -1
lala 15 0.3 second second 21 1 270 6.6 4.727999 0.219998121261597 0.25 1 1
lala 10 0.15 second first 16 1 271 -8 -5.43 0.299998044967651 0.25 0 -1
lala 12 1.2 first first 12 1 272 6.6 5.556 0.119998216629028 0 0 1
lala 12 0.3 first first 0 1 273 -8 -4.98 0.079998254776001 -0.25 0 1
lala 18 0.01875 first first 11 1 274 -6.6 -4.596751 0.01999831199646 0 1 1
lala 13 0.6 first second 12 1 275 6.6 4.956 0.219998121261597 0 0 -1
lala 14 0.3 first first 12 1 276 6.6 5.256 0.139998197555542 0 0 1
lala 16 0.15 second second 13 1 277 6.6 4.97175 0.219998121261597 0 1 1
lala 14 0.6 first second 15 1 278 8 3.44 0.639997720718384 0 1 -1
lala 13 0.01875 second second 14 1 279 8 4.98 0.219998121261597 0 0 1
lala 11 1.2 second first 8 1 280 -8 -3.18 0.339998006820679 0 0 -1
lala 9 0.6 first second 7 1 281 8 4.040001 1.13999724388123 -0.25 1 -1
lala 11 0.15 first first 16 1 282 -8 -5.58 0.23999810218811 0.25 0 1
lala 13 0.0375 first first 20 1 283 6.6 4.656 0.219998121261597 0.25 0 1
lala 12 0.075 first first 16 1 284 -8 -5.505001 0.219998121261597 0.25 0 1
lala 17 0.009375 first first 17 1 285 -8 -5.343126 0.199998140335083 0.25 1 1
lala 19 0.009375 first first 11 1 286 -6.6 -4.587376 0.179998159408569 0 1 1
lala 14 0.0375 second second 10 1 287 -6.6 -4.6185 0.379997968673706 0 0 1
lala 14 0.01875 first first 14 1 288 8 4.961249 0.199998140335083 0 0 1
lala 9 0.6 first second 5 1 289 6.6 3.978001 0.119998216629028 -0.25 1 -1
lala 15 0.15 second second 12 1 290 6.6 5.106 0.219998121261597 0 0 1
lala 14 0.0375 second second 20 1 291 6.6 4.6185 0.139998197555542 0.25 0 1
lala 15 1.2 first first 2 1 292 -6.6 -5.556 0.159998178482056 -0.25 0 1
lala 15 0.075 second second 20 1 293 6.6 4.5435 0.219998121261597 0.25 0 1
lala 11 0.15 second first 9 1 294 -8 -4.190001 0.079998254776001 0 1 -1
lala 8 1.2 second second 23 1 295 8 6.44 0.079998254776001 0.25 1 1
lala 16 0.6 first second 2 1 296 -6.6 -4.956 0.199998140335083 -0.25 0 -1
lala 15 0.0375 second second 14 1 297 8 4.923749 0.179998159408569 0 0 1
lala 10 0.3 second second 5 1 298 6.6 4.278001 0.139998197555542 -0.25 1 1
lala 13 0.075 first first 16 1 299 -8 -5.430001 0.179998159408569 0.25 0 1
lala 12 0.075 first second 9 1 300 -8 -4.265001 0.379997968673706 0 1 -1
lala 14 0.075 first first 16 1 301 -8 -5.355001 0.219998121261597 0.25 0 1
lala 18 0.01875 second first 17 1 302 -8 -5.324376 0.159998178482056 0.25 1 -1
lala 16 0.15 first first 12 1 303 6.6 4.956 0.159998178482056 0 0 1
lala 10 0.01875 first second 22 1 304 8 4.47375 0.259998083114624 0.25 0 -1
lala 12 0.6 second first 8 1 305 -8 -3.78 0.079998254776001 0 0 -1
lala 20 0.009375 first second 11 1 306 -6.6 -4.578001 0.359997987747192 0 1 -1
lala 17 0.3 first first 2 1 307 -6.6 -5.256 0.139998197555542 -0.25 0 1
lala 10 0.3 second second 6 1 308 8 3.78 0.259998083114624 -0.25 0 1
lala 11 0.075 first first 19 1 309 -6.6 -5.103 0.379997968673706 0.25 1 1
lala 11 0.15 first first 5 1 310 6.6 4.128001 0.23999810218811 -0.25 1 1
lala 7 0.15 second first 18 1 311 -6.6 -3.606 0.199998140335083 0.25 0 -1
lala 13 0.075 second second 9 1 312 -8 -4.340001 0.219998121261597 0 1 1
lala 18 0.15 first second 2 1 313 -6.6 -5.106 0.439997911453247 -0.25 0 -1
lala 16 0.15 second second 20 1 314 6.6 4.3935 0.219998121261597 0.25 0 1
lala 21 0.0046875 first second 11 1 315 -6.6 -4.582688 0.319998025894165 0 1 -1
lala 22 0.0046875 second second 11 1 316 -6.6 -4.587376 0.179998159408569 0 1 1
lala 11 0.3 first second 6 1 317 8 3.48 0.279998064041138 -0.25 0 -1
lala 12 0.15 first second 5 1 318 6.6 3.978001 0.179998159408569 -0.25 1 -1
lala 17 0.3 second second 20 1 319 6.6 4.0935 0.599997758865356 0.25 0 1
lala 15 0.15 second second 16 1 320 -8 -5.205001 0.23999810218811 0.25 0 1
lala 8 0.15 first second 18 1 321 -6.6 -3.756 0.219998121261597 0.25 0 -1
lala 19 0.075 second second 2 1 322 -6.6 -5.181 0.359997987747192 -0.25 0 1
lala 13 0.6 first first 8 1 323 -8 -4.38 0.299998044967651 0 0 1
lala 23 0.00234375 second first 11 1 324 -6.6 -4.585032 0.659997701644897 0 1 -1
lala 24 0.001171875 second first 11 1 325 -6.6 -4.586204 0.159998178482056 0 1 -1
lala 16 0.3 first first 21 1 326 6.6 4.427999 0.159998178482056 0.25 1 1
lala 14 0.3 first first 4 1 327 6.6 4.955999 0.179998159408569 -0.25 0 1
lala 13 0.3 first first 0 1 328 -8 -4.679999 0.139998197555542 -0.25 0 1
lala 16 0.3 second second 16 1 329 -8 -4.905001 0.599997758865356 0.25 0 1
lala 12 1.2 second second 3 1 330 -6.6 -5.778 0.279998064041138 -0.25 1 1
lala 15 0.3 first first 4 1 331 6.6 4.655999 0.199998140335083 -0.25 0 1
lala 14 0.3 second second 8 1 332 -8 -4.08 0.339998006820679 0 0 1
lala 9 2.4 second second 23 1 333 8 4.039999 0.39999794960022 0.25 1 1
lala 17 0.6 second first 16 1 334 -8 -4.305001 0.359997987747192 0.25 0 -1
lala 13 0.075 second first 5 1 335 6.6 4.053 0.139998197555542 -0.25 1 -1
lala 17 0.6 first second 21 1 336 6.6 3.827999 0.279998064041138 0.25 1 -1
lala 9 0.15 second first 18 1 337 -6.6 -3.906 0.199998140335083 0.25 0 -1
lala 15 0.0375 first first 10 1 338 -6.6 -4.581 0.139998197555542 0 0 1
lala 13 0.6 second second 3 1 339 -6.6 -5.178 0.219998121261597 -0.25 1 1
lala 17 0.3 second second 13 1 340 6.6 4.67175 0.219998121261597 0 1 1
lala 16 0.0375 second second 10 1 341 -6.6 -4.5435 0.119998216629028 0 0 1
lala 14 0.075 second second 5 1 342 6.6 4.128 0.119998216629028 -0.25 1 1
lala 10 4.8 second first 23 1 343 8 -0.7600007 0.159998178482056 0.25 1 -1
lala 15 0.6 first first 15 1 344 8 4.04 0.079998254776001 0 1 1
lala 16 0.3 second second 15 1 345 8 3.74 0.319998025894165 0 1 1
lala 12 1.2 second first 1 1 346 -8 -3.440001 0.079998254776001 -0.25 1 -1
lala 18 0.3 first first 16 1 347 -8 -4.605001 0.199998140335083 0.25 0 1
lala 16 0.075 second second 14 1 348 8 4.84875 0.279998064041138 0 0 1
lala 15 0.0375 second second 5 1 349 6.6 4.0905 0.39999794960022 -0.25 1 1
lala 17 0.15 second second 12 1 350 6.6 4.806 0.99999737739563 0 0 1
lala 17 0.075 first first 10 1 351 -6.6 -4.4685 0.199998140335083 0 0 1
lala 18 0.3 second second 21 1 352 6.6 4.127999 0.159998178482056 0.25 1 1
lala 18 0.6 second second 13 1 353 6.6 4.07175 0.159998178482056 0 1 1
lala 25 0.001171875 second second 11 1 354 -6.6 -4.587376 0.0999982357025146 0 1 1
lala 10 0.3 first second 18 1 355 -6.6 -4.206 0.39999794960022 0.25 0 -1
lala 10 0.3 second second 7 1 356 8 4.340002 0.139998197555542 -0.25 1 1
lala 12 0.15 second first 6 1 357 8 3.63 0.139998197555542 -0.25 0 -1
lala 16 0.3 first first 4 1 358 6.6 4.355999 0.219998121261597 -0.25 0 1
lala 14 0.3 second first 0 1 359 -8 -4.379999 0.159998178482056 -0.25 0 -1
lala 19 1.2 first second 13 1 360 6.6 2.87175 0.39999794960022 0 1 -1
lala 11 2.4 first second 23 1 361 8 1.639999 1.35999703407288 0.25 1 -1
lala 19 0.009375 first first 17 1 362 -8 -5.333751 0.159998178482056 0.25 1 1
lala 18 0.15 first second 10 1 363 -6.6 -4.3185 1.13999724388123 0 0 -1
lala 11 0.15 second second 7 1 364 8 4.190001 0.719997644424438 -0.25 1 1
lala 18 0.6 first second 20 1 365 6.6 3.4935 2.03999662399292 0.25 0 -1
lala 12 2.4 second second 23 1 366 8 4.039999 1.05999732017517 0.25 1 1
lala 15 0.3 second second 8 1 367 -8 -3.78 0.279998064041138 0 0 1
lala 18 0.3 second first 12 1 368 6.6 4.506 0.119998216629028 0 0 -1
lala 12 0.075 first first 19 1 369 -6.6 -5.028 0.199998140335083 0.25 1 1
lala 14 0.0375 first first 9 1 370 -8 -4.302501 0.0999982357025146 0 1 1
lala 11 0.6 second second 18 1 371 -6.6 -4.806 0.139998197555542 0.25 0 1
lala 12 0.15 second second 7 1 372 8 4.040001 0.139998197555542 -0.25 1 1
lala 26 0.0005859375 first first 11 1 373 -6.6 -4.58679 0.139998197555542 0 1 1
lala 20 0.0046875 first first 17 1 374 -8 -5.329064 0.139998197555542 0.25 1 1
lala 11 0.009375 first first 22 1 375 8 4.483125 0.159998178482056 0.25 0 1
lala 19 0.15 first first 21 1 377 6.6 3.977999 0.0399982929229736 0.25 1 1
lala 13 0.075 second second 19 1 378 -6.6 -4.953001 0.359997987747192 0.25 1 1
lala 19 0.3 second first 20 1 379 6.6 3.7935 0.219998121261597 0.25 0 -1
lala 19 0.075 second second 10 1 380 -6.6 -4.3935 0.23999810218811 0 0 1
lala 19 0.15 second second 16 1 381 -8 -4.455001 0.179998159408569 0.25 0 1
lala 14 0.15 second second 19 1 382 -6.6 -4.803 0.0999982357025146 0.25 1 1
lala 20 0.3 second second 20 1 383 6.6 4.0935 0.23999810218811 0.25 0 1
lala 12 0.3 second first 18 1 384 -6.6 -4.506 0.139998197555542 0.25 0 -1
lala 20 0.15 second second 16 1 386 -8 -4.305001 0.179998159408569 0.25 0 1
lala 21 0.15 second second 16 1 387 -8 -4.155001 0.0999982357025146 0.25 0 1
lala 12 0.0046875 second second 22 1 388 8 4.478437 0.119998216629028 0.25 0 1
lala 13 1.2 second first 23 1 389 8 2.839999 2.35999631881714 0.25 1 -1
lala 13 0.15 first second 7 1 390 8 3.890001 0.199998140335083 -0.25 1 -1
lala 15 0.15 first first 0 1 391 -8 -4.529999 0.179998159408569 -0.25 0 1
lala 17 0.6 second second 4 1 392 6.6 3.755999 0.159998178482056 -0.25 0 1
lala 21 0.0046875 second second 17 1 393 -8 -5.324377 0.219998121261597 0.25 1 1
lala 20 0.0375 second first 10 1 394 -6.6 -4.356 0.079998254776001 0 0 -1
lala 20 0.6 first first 13 1 396 6.6 3.47175 0.199998140335083 0 1 1
lala 22 0.3 second first 16 1 397 -8 -3.855001 0.119998216629028 0.25 0 -1
lala 16 0.3 second second 8 1 398 -8 -3.48 0.179998159408569 0 0 1
lala 22 0.0046875 first first 17 1 399 -8 -5.319689 0.259998083114624 0.25 1 1
lala 13 0.0046875 first first 22 1 400 8 4.47375 0.199998140335083 0.25 0 1
lala 21 0.01875 first first 10 1 401 -6.6 -4.37475 0.339998006820679 0 0 1
lala 23 0.15 second second 16 1 402 -8 -4.005001 0.23999810218811 0.25 0 1
lala 16 0.0375 first second 5 1 403 6.6 4.053 0.559997797012329 -0.25 1 -1
lala 14 0.6 first first 3 1 404 -6.6 -4.578 0.159998178482056 -0.25 1 1
lala 24 0.075 second second 16 1 405 -8 -3.930001 0.179998159408569 0.25 0 1
lala 21 0.3 first second 13 1 406 6.6 3.17175 0.339998006820679 0 1 -1
lala 25 0.075 second second 16 1 407 -8 -3.855 0.199998140335083 0.25 0 1
lala 15 0.0375 second first 9 1 408 -8 -4.265001 0.01999831199646 0 1 -1
lala 16 0.01875 second first 9 1 409 -8 -4.283751 0.01999831199646 0 1 -1
lala 13 0.15 second first 18 1 410 -6.6 -4.656 0.01999831199646 0.25 0 -1
lala 18 1.2 second first 4 1 411 6.6 2.555999 0.01999831199646 -0.25 0 -1
lala 26 0.075 second first 16 1 412 -8 -3.78 0.179998159408569 0.25 0 -1
lala 20 0.15 second first 21 1 413 6.6 3.827999 0.0599982738494873 0.25 1 -1
lala 16 0.075 second second 0 1 414 -8 -4.454999 0.479997873306274 -0.25 0 1
lala 14 0.075 first first 7 1 415 8 3.965001 0.0599982738494873 -0.25 1 1
lala 19 0.6 second first 4 1 416 6.6 3.155999 0.01999831199646 -0.25 0 -1
lala 13 0.6 second first 1 1 417 -8 -4.040001 0.0399982929229736 -0.25 1 -1
lala 21 0.075 first second 21 1 418 6.6 3.902999 0.299998044967651 0.25 1 -1
lala 15 0.0375 first first 7 1 419 8 3.927501 0.159998178482056 -0.25 1 1
lala 14 0.6 second first 23 1 420 8 3.44 0.01999831199646 0.25 1 -1
lala 17 0.15 second first 14 1 421 8 4.69875 0.01999831199646 0 0 -1
lala 23 0.009375 first first 17 1 422 -8 -5.310314 0.0999982357025146 0.25 1 1
lala 14 0.0046875 second second 22 1 423 8 4.469063 0.01999831199646 0.25 0 1
lala 17 0.01875 first first 9 1 424 -8 -4.302502 0.01999831199646 0 1 1
lala 27 0.0375 second second 16 1 425 -8 -3.8175 0.01999831199646 0.25 0 1
lala 13 0.15 second first 6 1 426 8 3.78 0.01999831199646 -0.25 0 -1
lala 28 0.01875 first second 16 1 427 -8 -3.79875 0.01999831199646 0.25 0 -1
lala 21 0.15 first second 20 1 428 6.6 3.9435 0.159998178482056 0.25 0 -1
lala 17 0.6 second first 8 1 429 -8 -2.88 0.0399982929229736 0 0 -1
lala 22 0.075 second second 21 1 430 6.6 3.977999 0.0599982738494873 0.25 1 1
lala 24 0.01875 first first 17 1 431 -8 -5.291564 0.179998159408569 0.25 1 1
lala 15 0.6 second second 3 1 432 -6.6 -3.978 0.0999982357025146 -0.25 1 1
lala 14 0.15 first first 18 1 433 -6.6 -4.806 0.0599982738494873 0.25 0 1
lala 15 0.075 second second 18 1 434 -6.6 -4.731 0.179998159408569 0.25 0 1
lala 18 0.075 first second 14 1 435 8 4.773749 0.139998197555542 0 0 -1
lala 20 0.0375 first first 2 1 436 -6.6 -5.1435 0.0999982357025146 -0.25 0 1
lala 19 0.15 second second 12 1 437 6.6 4.656 0.319998025894165 0 0 1
lala 22 0.009375 second second 10 1 438 -6.6 -4.365375 0.259998083114624 0 0 1
lala 29 0.009375 second second 16 1 439 -8 -3.808125 0.179998159408569 0.25 0 1
lala 18 0.3 second first 8 1 440 -8 -3.18 0.119998216629028 0 0 -1
lala 14 0.6 second second 1 1 441 -8 -4.640001 0.259998083114624 -0.25 1 1
lala 17 0.075 first first 0 1 442 -8 -4.38 0.0399982929229736 -0.25 0 1
lala 22 0.075 second second 20 1 443 6.6 4.018499 0.419997930526733 0.25 0 1
lala 19 0.3 second first 8 1 444 -8 -3.48 0.0999982357025146 0 0 -1
lala 17 0.01875 second second 5 1 445 6.6 4.071751 0.99999737739563 -0.25 1 1
lala 20 0.075 second second 12 1 446 6.6 4.581 0.379997968673706 0 0 1
lala 16 1.2 second first 3 1 448 -6.6 -2.778 0.0399982929229736 -0.25 1 -1
lala 20 0.6 first first 4 1 449 6.6 3.755999 0.0999982357025146 -0.25 0 1
lala 21 0.3 second first 4 1 450 6.6 3.455999 0.0599982738494873 -0.25 0 -1
lala 15 0.009375 second second 22 1 452 8 4.459688 0.119998216629028 0.25 0 1
lala 22 0.15 second first 13 1 453 6.6 3.32175 0.0399982929229736 0 1 -1
lala 15 0.3 first first 19 1 454 -6.6 -4.503 0.179998159408569 0.25 1 1
lala 16 0.075 second second 18 1 455 -6.6 -4.656001 0.119998216629028 0.25 0 1
lala 18 0.009375 second second 9 1 456 -8 -4.293127 0.0999982357025146 0 1 1
lala 14 0.15 second second 6 1 457 8 3.93 0.139998197555542 -0.25 0 1
lala 15 0.3 second second 1 1 458 -8 -4.340001 0.079998254776001 -0.25 1 1
lala 17 0.075 second second 18 1 459 -6.6 -4.581001 0.179998159408569 0.25 0 1
lala 19 0.009375 second second 9 1 460 -8 -4.283751 0.119998216629028 0 1 1
lala 25 0.0375 second second 17 1 461 -8 -5.254064 0.139998197555542 0.25 1 1
lala 21 0.0375 second second 2 1 462 -6.6 -5.106 0.159998178482056 -0.25 0 1
lala 20 0.009375 second second 9 1 463 -8 -4.274376 0.119998216629028 0 1 1
lala 16 0.3 second first 1 1 464 -8 -4.040001 0.119998216629028 -0.25 1 -1
lala 23 0.15 second first 13 1 465 6.6 3.47175 0.119998216629028 0 1 -1
lala 20 0.3 second first 8 1 466 -8 -3.78 0.079998254776001 0 0 -1
lala 18 0.15 first second 18 1 467 -6.6 -4.431001 0.159998178482056 0.25 0 -1
lala 17 0.6 first second 3 1 468 -6.6 -3.378 0.139998197555542 -0.25 1 -1
lala 15 0.075 second first 6 1 469 8 3.855 0.0599982738494873 -0.25 0 -1
lala 16 0.0375 second second 7 1 470 8 3.890002 0.119998216629028 -0.25 1 1
lala 21 0.075 second second 12 1 471 6.6 4.506 0.139998197555542 0 0 1
lala 18 0.6 second first 3 1 472 -6.6 -3.978 0.0599982738494873 -0.25 1 -1
lala 19 0.075 first first 18 1 473 -6.6 -4.506001 0.01999831199646 0.25 0 1
lala 17 0.3 first second 15 1 474 8 3.44 0.0999982357025146 0 1 -1
lala 23 0.0375 second second 21 1 475 6.6 3.940499 0.259998083114624 0.25 1 1
lala 21 0.01875 first first 9 1 476 -8 -4.255626 0.0599982738494873 0 1 1
lala 20 0.0375 second first 18 1 477 -6.6 -4.468501 0.0599982738494873 0.25 0 -1
lala 22 0.075 first first 12 1 479 6.6 4.431 0.079998254776001 0 0 1
lala 21 0.6 first first 8 1 480 -8 -4.38 0.01999831199646 0 0 1
lala 24 0.0375 second first 21 1 481 6.6 3.902999 0.01999831199646 0.25 1 -1
lala 18 0.15 second second 15 1 482 8 3.59 0.299998044967651 0 1 1
lala 23 0.009375 second second 10 1 483 -6.6 -4.356 0.319998025894165 0 0 1
lala 19 0.6 first first 3 1 484 -6.6 -4.578 0.139998197555542 -0.25 1 1
lala 21 0.01875 second second 18 1 485 -6.6 -4.487251 0.199998140335083 0.25 0 1
lala 20 0.3 first first 3 1 486 -6.6 -4.278 0.0599982738494873 -0.25 1 1
lala 24 0.15 second first 13 1 488 6.6 3.62175 0.01999831199646 0 1 -1
lala 16 0.0375 first first 6 1 489 8 3.8925 0.119998216629028 -0.25 0 1
lala 26 0.075 second second 17 1 490 -8 -5.179064 0.0999982357025146 0.25 1 1
lala 16 0.6 second first 19 1 491 -6.6 -3.903 0.01999831199646 0.25 1 -1
lala 18 0.075 second first 0 1 492 -8 -4.305 0.01999831199646 -0.25 0 -1
lala 17 0.01875 second second 6 1 493 8 3.87375 0.199998140335083 -0.25 0 1
lala 16 0.01875 second second 22 1 494 8 4.440938 0.319998025894165 0.25 0 1
lala 24 0.009375 first first 10 1 496 -6.6 -4.346625 0.179998159408569 0 0 1
lala 19 0.075 second second 14 1 497 8 4.848749 0.139998197555542 0 0 1
lala 17 0.0375 first second 22 1 498 8 4.403438 0.279998064041138 0.25 0 -1
lala 25 0.01875 second second 10 1 499 -6.6 -4.327875 0.199998140335083 0 0 1
lala 23 0.0375 second second 20 1 500 6.6 3.980999 0.23999810218811 0.25 0 1
lala 30 0.0046875 first second 16 1 501 -8 -3.803438 0.339998006820679 0.25 0 -1
lala 19 0.075 second first 15 1 502 8 3.515 0.0999982357025146 0 1 -1
lala 25 0.01875 second first 21 1 503 6.6 3.921749 0.0399982929229736 0.25 1 -1
lala 27 0.15 first first 17 1 504 -8 -5.029064 0.199998140335083 0.25 1 1
lala 26 0.01875 second second 21 1 505 6.6 3.940499 0.199998140335083 0.25 1 1
lala 17 0.0375 second first 7 1 506 8 3.852502 0.079998254776001 -0.25 1 -1
lala 22 0.3 first second 8 1 507 -8 -4.08 0.299998044967651 0 0 -1
lala 20 0.0375 second second 14 1 508 8 4.811249 0.199998140335083 0 0 1
lala 18 0.01875 second second 6 1 509 8 3.855 0.759997606277466 -0.25 0 1
lala 28 0.3 first first 17 1 510 -8 -4.729064 0.279998064041138 0.25 1 1
lala 18 0.01875 first first 22 1 511 8 4.422188 0.179998159408569 0.25 0 1
lala 31 0.00234375 second second 16 1 512 -8 -3.805782 0.23999810218811 0.25 0 1
lala 32 0.001171875 first second 16 1 513 -8 -3.80461 0.379997968673706 0.25 0 -1
lala 19 0.0375 second second 0 1 514 -8 -4.3425 0.299998044967651 -0.25 0 1
lala 25 0.3 first first 13 1 516 6.6 3.92175 0.159998178482056 0 1 1
lala 20 0.0375 second first 15 1 517 8 3.5525 0.0599982738494873 0 1 -1
lala 18 0.009375 first first 5 1 518 6.6 4.062376 0.23999810218811 -0.25 1 1
lala 15 0.6 second first 23 1 519 8 4.039999 0.139998197555542 0.25 1 -1
lala 19 0.009375 first first 22 1 520 8 4.412813 0.079998254776001 0.25 0 1
lala 19 0.01875 second second 6 1 521 8 3.83625 0.299998044967651 -0.25 0 1
lala 23 0.15 first first 8 1 522 -8 -4.23 0.119998216629028 0 0 1
lala 17 0.15 first first 1 1 523 -8 -4.190001 0.0599982738494873 -0.25 1 1
lala 24 0.075 second second 8 1 524 -8 -4.155 0.299998044967651 0 0 1
lala 17 0.3 second second 19 1 525 -6.6 -4.203001 0.119998216629028 0.25 1 1
lala 22 0.0375 second second 9 1 526 -8 -4.218126 0.159998178482056 0 1 1
lala 26 0.15 second first 13 1 527 6.6 3.77175 0.0399982929229736 0 1 -1
lala 20 0.009375 second first 22 1 528 8 4.403438 0.01999831199646 0.25 0 -1
lala 18 0.075 second second 1 1 529 -8 -4.115001 0.119998216629028 -0.25 1 1
lala 26 0.0375 first first 10 1 530 -6.6 -4.290375 0.199998140335083 0 0 1
lala 20 0.01875 first first 0 1 531 -8 -4.32375 0.0599982738494873 -0.25 0 1
lala 27 0.009375 second first 21 1 532 6.6 3.931124 0.0399982929229736 0.25 1 -1
lala 29 0.6 second second 17 1 533 -8 -4.129064 0.219998121261597 0.25 1 1
lala 33 0.0005859375 second first 16 1 534 -8 -3.805196 0.0999982357025146 0.25 0 -1
lala 22 0.009375 second second 18 1 535 -6.6 -4.477876 0.299998044967651 0.25 0 1
lala 25 0.075 second first 8 1 536 -8 -4.08 0.01999831199646 0 0 -1
lala 23 0.009375 second first 18 1 537 -6.6 -4.468501 0.01999831199646 0.25 0 -1
lala 18 0.15 second second 19 1 538 -6.6 -4.053 0.199998140335083 0.25 1 1
lala 21 0.0375 second first 15 1 539 8 3.59 0.0399982929229736 0 1 -1
lala 26 0.0375 second second 8 1 540 -8 -4.1175 0.299998044967651 0 0 1
lala 19 0.009375 first second 5 1 541 6.6 4.053 0.23999810218811 -0.25 1 -1
lala 22 0.0375 second second 2 1 542 -6.6 -5.0685 0.119998216629028 -0.25 0 1
lala 21 0.0375 first second 14 1 543 8 4.773749 0.23999810218811 0 0 -1
lala 28 0.0046875 first first 21 1 544 6.6 3.935812 0.159998178482056 0.25 1 1
lala 19 0.15 first second 19 1 545 -6.6 -3.903 0.23999810218811 0.25 1 -1
lala 22 0.15 first second 4 1 546 6.6 3.605999 0.359997987747192 -0.25 0 -1
lala 29 0.00234375 second first 21 1 547 6.6 3.933468 0.0999982357025146 0.25 1 -1
lala 27 0.075 second first 10 1 548 -6.6 -4.215375 0.01999831199646 0 0 -1
lala 27 0.01875 second first 8 1 550 -8 -4.09875 0.01999831199646 0 0 -1
lala 22 0.0375 second second 15 1 551 8 3.6275 0.159998178482056 0 1 1
lala 21 0.01875 second first 0 1 552 -8 -4.304999 0.0599982738494873 -0.25 0 -1
lala 22 0.009375 second first 0 1 553 -8 -4.314374 0.219998121261597 -0.25 0 -1
lala 24 0.0046875 second second 18 1 554 -6.6 -4.473188 0.259998083114624 0.25 0 1
lala 23 0.01875 second first 15 1 555 8 3.60875 0.119998216629028 0 1 -1
lala 30 1.2 second first 17 1 556 -8 -2.929064 0.01999831199646 0.25 1 -1
lala 23 0.075 first first 2 1 557 -6.6 -4.9935 0.01999831199646 -0.25 0 1
lala 25 0.00234375 first first 18 1 558 -6.6 -4.470844 0.01999831199646 0.25 0 1
lala 26 0.00234375 first first 18 1 559 -6.6 -4.468501 3.27999544143677 0.25 0 1
lala 24 0.15 first first 2 1 560 -6.6 -4.8435 0.319998025894165 -0.25 0 1
lala 20 0.075 first second 19 1 561 -6.6 -3.978 0.279998064041138 0.25 1 -1
lala 16 0.6 second second 23 1 562 8 4.639999 0.219998121261597 0.25 1 1
lala 23 0.15 second second 4 1 563 6.6 3.755999 0.199998140335083 -0.25 0 1
lala 24 0.0375 second first 20 1 564 6.6 3.9435 0.319998025894165 0.25 0 -1
lala 23 0.075 second first 9 1 565 -8 -4.143126 0.119998216629028 0 1 -1
lala 20 0.0375 second first 6 1 567 8 3.79875 0.339998006820679 -0.25 0 -1
lala 24 0.0375 second first 9 1 569 -8 -4.180626 0.139998197555542 0 1 -1
lala 28 0.009375 second first 8 1 570 -8 -4.108125 0.139998197555542 0 0 -1
lala 27 0.075 second second 13 1 571 6.6 3.84675 0.179998159408569 0 1 1
lala 21 0.0046875 second first 22 1 572 8 4.408125 0.01999831199646 0.25 0 -1
lala 17 0.3 first first 23 1 573 8 4.339999 0.219998121261597 0.25 1 1
lala 23 0.15 second second 12 1 574 6.6 4.281 0.179998159408569 0 0 1
lala 28 0.0375 second second 10 1 575 -6.6 -4.252875 0.219998121261597 0 0 1
lala 29 0.01875 second first 10 1 576 -6.6 -4.234125 0.0599982738494873 0 0 -1
lala 21 0.01875 second first 6 1 577 8 3.8175 0.159998178482056 -0.25 0 -1
lala 29 0.009375 second second 8 1 578 -8 -4.1175 0.23999810218811 0 0 1
lala 21 0.075 second first 19 1 579 -6.6 -4.053 0.219998121261597 0.25 1 -1
lala 22 0.075 second second 19 1 580 -6.6 -4.128 0.279998064041138 0.25 1 1
lala 22 0.0046875 first first 22 1 581 8 4.412812 0.639997720718384 0.25 0 1
lala 22 0.01875 second first 6 1 582 8 3.83625 0.0999982357025146 -0.25 0 -1
lala 18 0.3 second first 23 1 583 8 4.039999 0.01999831199646 0.25 1 -1
lala 30 0.009375 first second 10 1 584 -6.6 -4.2435 0.179998159408569 0 0 -1
lala 28 0.0375 second first 13 1 585 6.6 3.80925 0.139998197555542 0 1 -1
lala 25 0.01875 second first 20 1 586 6.6 3.96225 0.0399982929229736 0.25 0 -1
lala 20 0.0046875 second second 5 1 587 6.6 4.057688 0.379997968673706 -0.25 1 1
lala 26 0.01875 first second 20 1 588 6.6 3.980999 0.199998140335083 0.25 0 -1
lala 25 0.3 second second 2 1 589 -6.6 -4.5435 0.23999810218811 -0.25 0 1
lala 25 0.0375 first first 9 1 590 -8 -4.218126 0.159998178482056 0 1 1
lala 27 0.01875 first first 20 1 591 6.6 3.999749 0.01999831199646 0.25 0 1
lala 26 0.01875 first second 9 1 592 -8 -4.199376 0.379997968673706 0 1 -1
lala 23 0.009375 second second 0 1 593 -8 -4.32375 0.159998178482056 -0.25 0 1
lala 23 0.0375 first second 19 1 594 -6.6 -4.0905 1.55999684333801 0.25 1 -1
lala 24 0.075 first second 4 1 595 6.6 3.680999 1.29999709129334 -0.25 0 -1
lala 21 0.00234375 second first 5 1 596 6.6 4.055344 0.179998159408569 -0.25 1 -1
lala 30 0.001171875 first second 21 1 597 6.6 3.93464 0.259998083114624 0.25 1 -1
lala 19 0.15 second second 23 1 598 8 4.189999 0.479997873306274 0.25 1 1
lala 21 0.3 second first 3 1 599 -6.6 -3.978 0.0999982357025146 -0.25 1 -1
lala 25 0.0375 second first 4 1 600 6.6 3.718499 0.139998197555542 -0.25 0 -1
lala 31 0.001171875 second second 21 1 601 6.6 3.935812 0.319998025894165 0.25 1 1
lala 20 0.075 second first 23 1 602 8 4.114999 0.0999982357025146 0.25 1 -1
lala 27 0.009375 second second 9 1 603 -8 -4.208751 0.319998025894165 0 1 1
lala 26 0.6 second first 2 1 604 -6.6 -3.9435 0.079998254776001 -0.25 0 -1
lala 23 0.00234375 second first 22 1 605 8 4.410469 0.119998216629028 0.25 0 -1
lala 29 0.01875 first first 13 1 606 6.6 3.828 0.279998064041138 0 1 1
lala 22 0.15 second second 3 1 607 -6.6 -4.128 0.359997987747192 -0.25 1 1
lala 24 0.001171875 second second 22 1 608 8 4.411641 0.119998216629028 0.25 0 1
lala 31 0.009375 second first 10 1 609 -6.6 -4.252875 0.0999982357025146 0 0 -1
lala 24 0.01875 first second 19 1 610 -6.6 -4.109251 0.179998159408569 0.25 1 -1
lala 26 0.0375 second first 4 1 611 6.6 3.755999 0.179998159408569 -0.25 0 -1
lala 32 0.009375 second first 10 1 612 -6.6 -4.26225 0.01999831199646 0 0 -1
lala 25 0.01875 second first 19 1 613 -6.6 -4.128001 0.0999982357025146 0.25 1 -1
lala 24 0.009375 second second 15 1 614 8 3.618125 0.139998197555542 0 1 1
lala 27 0.3 second second 2 1 615 -6.6 -4.2435 0.159998178482056 -0.25 0 1
lala 30 0.0046875 second first 8 1 616 -8 -4.112813 0.0599982738494873 0 0 -1
lala 22 0.001171875 first second 5 1 617 6.6 4.056516 0.279998064041138 -0.25 1 -1
lala 31 0.00234375 second first 8 1 618 -8 -4.115157 0.199998140335083 0 0 -1
lala 23 0.075 second first 3 1 619 -6.6 -4.053 0.0999982357025146 -0.25 1 -1
lala 30 0.009375 second first 13 1 620 6.6 3.818625 0.179998159408569 0 1 -1
lala 25 0.0046875 second first 15 1 621 8 3.613437 0.119998216629028 0 1 -1
lala 19 0.075 second second 1 1 622 -8 -4.040001 0.199998140335083 -0.25 1 1
lala 28 0.15 second first 2 1 624 -6.6 -4.0935 0.139998197555542 -0.25 0 -1
lala 24 0.0046875 second second 0 1 625 -8 -4.319062 0.199998140335083 -0.25 0 1
lala 18 0.01875 second first 7 1 626 8 3.871252 0.159998178482056 -0.25 1 -1
lala 28 0.0046875 second second 9 1 627 -8 -4.204064 0.259998083114624 0 1 1
lala 24 0.3 first second 12 1 628 6.6 3.981 0.759997606277466 0 0 -1
lala 31 0.0046875 second second 13 1 629 6.6 3.823313 0.299998044967651 0 1 1
lala 22 0.01875 second first 14 1 630 8 4.7925 0.0599982738494873 0 0 -1
lala 28 0.009375 first first 20 1 632 6.6 3.990374 0.0999982357025146 0.25 0 1
lala 21 0.0375 second second 23 1 634 8 4.152499 0.339998006820679 0.25 1 1
lala 25 0.15 second second 12 1 635 6.6 4.131 0.359997987747192 0 0 1
lala 32 0.00234375 first first 13 1 636 6.6 3.820969 0.639997720718384 0 1 1
lala 19 0.01875 second first 7 1 637 8 3.890002 0.539997816085815 -0.25 1 -1
lala 23 0.001171875 second first 5 1 638 6.6 4.057688 0.119998216629028 -0.25 1 -1
lala 26 0.075 second first 12 1 639 6.6 4.056 0.0399982929229736 0 0 -1
lala 32 0.00234375 first second 8 1 640 -8 -4.1175 0.179998159408569 0 0 -1
lala 25 0.0005859375 first first 22 1 641 8 4.411055 0.119998216629028 0.25 0 1
lala 33 0.00234375 first second 13 1 642 6.6 3.818625 0.199998140335083 0 1 -1
lala 27 0.0375 second first 4 1 643 6.6 3.793499 0.0999982357025146 -0.25 0 -1
lala 22 0.01875 second second 23 1 645 8 4.133749 0.199998140335083 0.25 1 1
lala 27 0.0375 first first 12 1 646 6.6 4.0935 0.0399982929229736 0 0 1
lala 26 0.01875 second second 19 1 647 -6.6 -4.146751 0.199998140335083 0.25 1 1
lala 34 0.001171875 second first 13 1 648 6.6 3.819797 0.139998197555542 0 1 -1
lala 29 0.075 second second 2 1 649 -6.6 -4.1685 0.0999982357025146 -0.25 0 1
lala 27 0.009375 second second 19 1 650 -6.6 -4.137376 0.219998121261597 0.25 1 1
lala 28 0.075 second second 4 1 651 6.6 3.868499 0.139998197555542 -0.25 0 1
lala 30 0.0375 second second 2 1 652 -6.6 -4.131 0.179998159408569 -0.25 0 1
lala 29 0.0046875 second first 9 1 654 -8 -4.199377 0.179998159408569 0 1 -1
lala 24 0.0375 second first 3 1 655 -6.6 -4.0905 0.199998140335083 -0.25 1 -1
lala 29 0.0375 second first 4 1 656 6.6 3.830999 0.319998025894165 -0.25 0 -1
lala 30 0.01875 second first 4 1 657 6.6 3.849749 0.179998159408569 -0.25 0 -1
lala 26 0.00234375 second first 15 1 658 8 3.615781 0.139998197555542 0 1 -1
lala 26 0.0005859375 first first 22 1 659 8 4.410469 0.159998178482056 0.25 0 1
lala 27 0.00234375 second first 15 1 660 8 3.618125 0.119998216629028 0 1 -1
lala 28 0.01875 second second 12 1 661 6.6 4.07475 0.179998159408569 0 0 1
lala 28 0.009375 first first 19 1 662 -6.6 -4.128001 0.179998159408569 0.25 1 1
lala 31 0.0375 first second 2 1 663 -6.6 -4.0935 0.219998121261597 -0.25 0 -1
lala 25 0.0375 first first 3 1 665 -6.6 -4.128 0.159998178482056 -0.25 1 1
lala 31 0.6 first second 17 1 666 -8 -3.529064 0.299998044967651 0.25 1 -1
lala 26 0.01875 second second 3 1 667 -6.6 -4.10925 0.179998159408569 -0.25 1 1
lala 29 0.009375 first second 20 1 668 6.6 3.980999 0.259998083114624 0.25 0 -1
lala 23 0.01875 second first 23 1 669 8 4.114999 0.179998159408569 0.25 1 -1
lala 32 0.6 second second 17 1 670 -8 -4.129064 0.299998044967651 0.25 1 1
lala 20 0.075 first second 1 1 671 -8 -3.965001 0.299998044967651 -0.25 1 -1
lala 33 0.3 second first 17 1 672 -8 -3.829064 0.0999982357025146 0.25 1 -1
lala 24 0.001171875 first second 5 1 673 6.6 4.05886 0.319998025894165 -0.25 1 -1
lala 29 0.009375 second second 19 1 674 -6.6 -4.118626 0.199998140335083 0.25 1 1
lala 32 0.01875 first first 2 1 675 -6.6 -4.11225 0.139998197555542 -0.25 0 1
lala 31 0.01875 first first 4 1 676 6.6 3.868499 0.139998197555542 -0.25 0 1
lala 24 0.009375 first first 23 1 677 8 4.124374 0.0999982357025146 0.25 1 1
lala 33 0.01875 second second 10 1 678 -6.6 -4.281 0.119998216629028 0 0 1
lala 28 0.00234375 first second 15 1 680 8 3.620468 0.259998083114624 0 1 -1
lala 25 0.0046875 second second 23 1 681 8 4.119687 0.119998216629028 0.25 1 1
lala 34 0.009375 second first 10 1 682 -6.6 -4.271625 0.079998254776001 0 0 -1
lala 29 0.01875 second second 12 1 683 6.6 4.056 0.139998197555542 0 0 1
lala 32 0.009375 second second 4 1 685 6.6 3.859123 0.159998178482056 -0.25 0 1
lala 34 0.15 second first 17 1 686 -8 -3.979064 0.0999982357025146 0.25 1 -1
lala 27 0.01875 second first 3 1 687 -6.6 -4.090499 0.0399982929229736 -0.25 1 -1
lala 30 0.0046875 second first 20 1 688 6.6 3.985687 0.0999982357025146 0.25 0 -1
lala 31 0.0046875 second first 20 1 690 6.6 3.990374 0.01999831199646 0.25 0 -1
lala 26 0.0046875 second second 23 1 692 8 4.114999 0.0999982357025146 0.25 1 1
lala 33 0.009375 first second 2 1 693 -6.6 -4.102875 0.179998159408569 -0.25 0 -1
lala 20 0.01875 first second 7 1 694 8 3.908751 0.299998044967651 -0.25 1 -1
lala 25 0.0046875 first first 0 1 695 -8 -4.314375 0.159998178482056 -0.25 0 1
lala 32 0.0046875 second second 20 1 696 6.6 3.995062 0.219998121261597 0.25 0 1
lala 30 0.01875 second second 19 1 698 -6.6 -4.099875 0.359997987747192 0.25 1 1
lala 21 0.0375 first first 7 1 699 8 3.946251 0.279998064041138 -0.25 1 1
lala 30 0.00234375 second first 9 1 700 -8 -4.20172 0.0599982738494873 0 1 -1
lala 23 0.01875 second first 6 1 701 8 3.855 0.139998197555542 -0.25 0 -1
lala 25 0.00234375 second second 5 1 702 6.6 4.061204 0.299998044967651 -0.25 1 1
lala 26 0.001171875 second second 5 1 703 6.6 4.060032 0.219998121261597 -0.25 1 1
lala 23 0.01875 second second 14 1 704 8 4.81125 0.199998140335083 0 0 1
lala 28 0.009375 second second 3 1 705 -6.6 -4.099874 0.079998254776001 -0.25 1 1
lala 21 0.0375 second second 1 1 707 -8 -4.002501 0.0599982738494873 -0.25 1 1
lala 24 0.009375 first first 14 1 712 8 4.801875 0.139998197555542 0 0 1
lala 34 0.0046875 first second 2 1 714 -6.6 -4.107563 0.319998025894165 -0.25 0 -1
lala 35 0.0046875 first first 2 1 715 -6.6 -4.11225 0.359997987747192 -0.25 0 1
lala 29 0.0046875 second second 3 1 716 -6.6 -4.095187 0.299998044967651 -0.25 1 1
lala 22 0.01875 first second 1 1 717 -8 -3.983752 0.879997491836548 -0.25 1 -1
lala 35 0.0046875 first second 10 1 718 -6.6 -4.276312 0.139998197555542 0 0 -1
lala 22 0.01875 second first 7 1 719 8 3.927501 0.279998064041138 -0.25 1 -1
lala 35 0.15 second first 17 1 721 -8 -4.129064 0.079998254776001 0.25 1 -1
lala 30 0.0046875 second second 3 1 725 -6.6 -4.0905 0.139998197555542 -0.25 1 1
lala 23 0.009375 first second 1 1 726 -8 -3.993127 0.119998216629028 -0.25 1 -1
lala 26 0.0046875 second first 0 1 728 -8 -4.309688 0.0999982357025146 -0.25 0 -1
lala 31 0.0375 second second 19 1 729 -6.6 -4.062376 0.279998064041138 0.25 1 1
lala 31 0.00234375 second first 9 1 730 -8 -4.204064 0.0999982357025146 0 1 -1
lala 31 0.0046875 second second 3 1 732 -6.6 -4.085813 0.259998083114624 -0.25 1 1
lala 30 0.01875 second first 12 1 734 6.6 4.03725 0.01999831199646 0 0 -1
lala 24 0.009375 second first 1 1 735 -8 -4.002501 0.119998216629028 -0.25 1 -1
lala 32 0.009375 second second 3 1 737 -6.6 -4.076437 0.079998254776001 -0.25 1 1
lala 23 0.009375 second first 7 1 739 8 3.936877 0.119998216629028 -0.25 1 -1
lala 27 0.0046875 second first 23 1 742 8 4.110312 0.0999982357025146 0.25 1 -1
lala 25 0.009375 first second 1 1 743 -8 -4.011877 0.219998121261597 -0.25 1 -1
lala 31 0.009375 second first 12 1 745 6.6 4.046625 0.119998216629028 0 0 -1
lala 24 0.009375 first second 7 1 746 8 3.946252 0.0599982738494873 -0.25 1 -1
lala 25 0.009375 second first 7 1 747 8 3.955627 0.0999982357025146 -0.25 1 -1
lala 33 0.009375 second first 4 1 748 6.6 3.849748 0.079998254776001 -0.25 0 -1
lala 28 0.00234375 second first 23 1 750 8 4.112656 0.0599982738494873 0.25 1 -1
lala 26 0.01875 second first 7 1 753 8 3.974377 0.01999831199646 -0.25 1 -1
lala 24 0.0375 first second 6 1 756 8 3.8925 0.179998159408569 -0.25 0 -1
lala 25 0.075 second first 6 1 757 8 3.9675 0.0599982738494873 -0.25 0 -1
lala 26 0.01875 second first 1 1 759 -8 -4.030627 0.0999982357025146 -0.25 1 -1
lala 32 0.009375 second second 12 1 761 6.6 4.056 0.23999810218811 0 0 1
lala 32 0.075 first second 19 1 763 -6.6 -3.987375 0.199998140335083 0.25 1 -1
lala 34 0.0046875 second first 4 1 764 6.6 3.854436 0.199998140335083 -0.25 0 -1
lala 27 0.0375 second first 1 1 766 -8 -4.068127 0.119998216629028 -0.25 1 -1
lala 28 0.075 second first 1 1 767 -8 -4.143126 0.0999982357025146 -0.25 1 -1
lala 33 0.0375 first second 19 1 769 -6.6 -4.024876 0.219998121261597 0.25 1 -1
lala 33 0.0046875 second first 12 1 771 6.6 4.051312 0.159998178482056 0 0 -1
lala 29 0.15 first second 1 1 772 -8 -4.293127 0.159998178482056 -0.25 1 -1
lala 35 0.0046875 second first 4 1 773 6.6 3.859123 0.159998178482056 -0.25 0 -1
lala 30 0.3 first first 1 1 774 -8 -4.593127 0.179998159408569 -0.25 1 1
lala 34 0.00234375 first first 12 1 777 6.6 4.053656 0.119998216629028 0 0 1
lala 27 0.0375 first first 7 1 779 8 4.011877 0.179998159408569 -0.25 1 1
lala 28 0.01875 first second 7 1 783 8 3.993127 0.199998140335083 -0.25 1 -1
lala 26 0.15 first second 6 1 785 8 4.1175 0.319998025894165 -0.25 0 -1
lala 31 0.15 second first 1 1 786 -8 -4.443127 0.159998178482056 -0.25 1 -1
lala 27 0.3 first first 6 1 787 8 4.4175 0.319998025894165 -0.25 0 1
lala 28 0.15 first first 6 1 789 8 4.2675 0.179998159408569 -0.25 0 1
lala 34 0.0375 first second 19 1 790 -6.6 -4.062376 0.23999810218811 0.25 1 -1
lala 29 0.15 second first 6 1 791 8 4.1175 0.139998197555542 -0.25 0 -1
lala 35 0.001171875 second second 12 1 792 6.6 4.052484 0.219998121261597 0 0 1
lala 25 0.009375 first first 14 1 793 8 4.7925 0.159998178482056 0 0 1
lala 30 0.075 second second 6 1 794 8 4.1925 0.0599982738494873 -0.25 0 1
lala 31 0.0375 second second 6 1 795 8 4.155 0.159998178482056 -0.25 0 1
lala 32 0.0375 first first 6 1 796 8 4.1175 0.119998216629028 -0.25 0 1
lala 26 0.009375 first first 14 1 797 8 4.783124 0.159998178482056 0 0 1
lala 35 0.0375 second second 19 1 798 -6.6 -4.099875 0.159998178482056 0.25 1 1
lala 29 0.009375 second second 7 1 802 8 4.002501 0.079998254776001 -0.25 1 1
lala 33 0.0375 second second 6 1 806 8 4.08 0.139998197555542 -0.25 0 1
lala 30 0.0046875 second first 7 1 807 8 3.997814 0.219998121261597 -0.25 1 -1
lala 27 0.01875 second second 14 1 808 8 4.764374 0.279998064041138 0 0 1
lala 34 0.075 second first 6 1 813 8 4.005001 0.23999810218811 -0.25 0 -1
lala 28 0.0375 first first 14 1 814 8 4.726874 0.179998159408569 0 0 1
lala 31 0.00234375 second second 7 1 815 8 4.000158 0.159998178482056 -0.25 1 1
lala 32 0.075 second second 1 1 820 -8 -4.518126 0.179998159408569 -0.25 1 1
lala 29 0.075 first first 14 1 821 8 4.651875 0.199998140335083 0 0 1
lala 32 0.001171875 first first 7 1 822 8 3.998986 0.159998178482056 -0.25 1 1
lala 33 0.001171875 second second 7 1 824 8 3.997814 0.179998159408569 -0.25 1 1
lala 33 0.0375 second first 1 1 826 -8 -4.480627 0.119998216629028 -0.25 1 -1
lala 30 0.15 first first 14 1 827 8 4.501874 0.199998140335083 0 0 1
lala 35 0.0375 second second 6 1 829 8 4.0425 0.179998159408569 -0.25 0 1
lala 31 0.3 second second 14 1 830 8 4.201874 0.23999810218811 0 0 1
lala 32 0.6 second second 14 1 832 8 3.601874 0.159998178482056 0 0 1
lala 33 1.2 second first 14 1 835 8 2.401874 0.39999794960022 0 0 -1
lala 34 0.6 second first 14 1 837 8 3.001874 0.179998159408569 0 0 -1
lala 35 0.6 first second 14 1 838 8 3.601874 0.599997758865356 0 0 -1
lala 34 0.01875 first second 1 1 839 -8 -4.499377 0.199998140335083 -0.25 1 -1
