subject PestNr Step_Size_OnTrial Response_Interval Pest_Interval Condition block trial velH velH_Pest Reaction_Time velH_Subject Start_Above Response_MotionEstimation
lala 1 1.2 first second 23 1 1 8 10.64 21.8603644371033 0.25 1 -1
lala 1 1.2 first second 18 1 2 -6.6 -4.356 2.93999576568604 0.25 0 -1
lala 1 1.2 second second 5 1 3 6.6 8.778 0.559997797012329 -0.25 1 1
lala 1 1.2 second second 14 1 4 8 5.28 0.439997911453247 0 0 1
lala 1 1.2 first first 17 1 5 -8 -10.64 0.739997625350952 0.25 1 1
lala 1 1.2 first first 8 1 6 -8 -5.28 0.679997682571411 0 0 1
lala 1 1.2 first first 7 1 7 8 10.64 0.99999737739563 -0.25 1 1
lala 2 1.2 first first 23 1 8 8 11.84 0.859997510910034 0.25 1 1
lala 2 1.2 second first 5 1 9 6.6 7.578 0.719997644424438 -0.25 1 -1
lala 1 1.2 first first 19 1 10 -6.6 -8.778 1.19999718666077 0.25 1 1
lala 1 1.2 second second 13 1 11 6.6 8.778 0.899997472763062 0 1 1
lala 2 1.2 second first 8 1 12 -8 -4.08 0.859997510910034 0 0 -1
lala 1 1.2 first first 3 1 13 -6.6 -8.778 0.539997816085815 -0.25 1 1
lala 1 1.2 first second 22 1 14 8 5.28 1.55999684333801 0.25 0 -1
lala 1 1.2 first first 10 1 15 -6.6 -4.356 0.819997549057007 0 0 1
lala 2 1.2 second second 7 1 16 8 9.440001 1.01999735832214 -0.25 1 1
lala 2 1.2 second first 10 1 17 -6.6 -3.156 0.599997758865356 0 0 -1
lala 3 1.2 second second 5 1 18 6.6 8.778 1.01999735832214 -0.25 1 1
lala 1 1.2 second first 2 1 19 -6.6 -4.356 0.899997472763062 -0.25 0 -1
lala 3 1.2 second second 23 1 20 8 10.64 0.519997835159302 0.25 1 1
lala 1 1.2 second second 21 1 21 6.6 8.778 0.699997663497925 0.25 1 1
lala 1 1.2 second second 1 1 22 -8 -10.64 0.779997587203979 -0.25 1 1
lala 1 1.2 first first 0 1 23 -8 -5.28 2.27999639511108 -0.25 0 1
lala 3 1.2 first second 8 1 24 -8 -5.28 0.959997415542603 0 0 -1
lala 1 1.2 first first 9 1 25 -8 -10.64 0.279998064041138 0 1 1
lala 3 1.2 first second 10 1 26 -6.6 -4.356 0.959997415542603 0 0 -1
lala 1 1.2 first first 11 1 27 -6.6 -8.778 0.39999794960022 0 1 1
lala 1 1.2 second second 15 1 28 8 10.64 1.17999720573425 0 1 1
lala 2 1.2 second second 3 1 29 -6.6 -7.578 0.859997510910034 -0.25 1 1
lala 1 1.2 second first 16 1 30 -8 -5.28 0.519997835159302 0.25 0 -1
lala 2 1.2 first second 0 1 31 -8 -4.08 0.459997892379761 -0.25 0 -1
lala 2 1.2 first first 2 1 32 -6.6 -5.556 1.19999718666077 -0.25 0 1
lala 2 1.2 first first 1 1 33 -8 -9.440001 0.859997510910034 -0.25 1 1
lala 2 1.2 second first 14 1 34 8 4.08 0.539997816085815 0 0 -1
lala 3 1.2 first first 3 1 35 -6.6 -6.378 1.21999716758728 -0.25 1 1
lala 3 1.2 second first 2 1 36 -6.6 -4.356 2.33999633789063 -0.25 0 -1
lala 3 1.2 first first 1 1 37 -8 -8.240001 0.559997797012329 -0.25 1 1
lala 4 1.2 first second 8 1 38 -8 -6.48 1.11999726295471 0 0 -1
lala 2 1.2 first second 22 1 39 8 6.48 4.25999450683594 0.25 0 -1
lala 4 1.2 second second 1 1 40 -8 -7.040001 0.61999773979187 -0.25 1 1
lala 2 1.2 first first 19 1 41 -6.6 -7.578 0.599997758865356 0.25 1 1
lala 3 1.2 second first 14 1 42 8 5.28 0.659997701644897 0 0 -1
lala 4 1.2 first first 23 1 43 8 9.440001 0.719997644424438 0.25 1 1
lala 4 1.2 first first 10 1 44 -6.6 -5.556 0.959997415542603 0 0 1
lala 5 0.6 first first 10 1 45 -6.6 -4.956 0.499997854232788 0 0 1
lala 1 1.2 second first 12 1 46 6.6 4.356 0.359997987747192 0 0 -1
lala 6 0.6 second second 10 1 47 -6.6 -4.356 1.27999711036682 0 0 1
lala 2 1.2 second first 12 1 48 6.6 5.556 1.73999691009521 0 0 -1
lala 4 1.2 second second 14 1 49 8 6.48 0.779997587203979 0 0 1
lala 5 0.6 first second 14 1 50 8 5.88 2.19999647140503 0 0 -1
lala 2 1.2 first first 15 1 51 8 9.440001 0.61999773979187 0 1 1
lala 2 1.2 first first 13 1 52 6.6 7.578 0.439997911453247 0 1 1
lala 5 2.4 first first 23 1 53 8 7.04 0.919997453689575 0.25 1 1
lala 2 1.2 first first 18 1 54 -6.6 -5.556 1.61999702453613 0.25 0 1
lala 3 1.2 first second 19 1 55 -6.6 -6.378 0.739997625350952 0.25 1 -1
lala 5 2.4 second first 1 1 56 -8 -4.640001 1.99999666213989 -0.25 1 -1
lala 6 0.3 first second 14 1 57 8 6.18 1.17999720573425 0 0 -1
lala 1 1.2 first second 4 1 58 6.6 4.356 2.51999616622925 -0.25 0 -1
lala 3 1.2 second second 0 1 59 -8 -5.28 2.13999652862549 -0.25 0 1
lala 3 1.2 second second 7 1 60 8 8.240001 1.77999687194824 -0.25 1 1
lala 4 1.2 first first 0 1 61 -8 -4.08 3.37999534606934 -0.25 0 1
lala 3 1.2 second second 18 1 62 -6.6 -4.356 1.93999671936035 0.25 0 1
lala 2 1.2 second second 17 1 63 -8 -9.440001 0.959997415542603 0.25 1 1
lala 3 1.2 first first 15 1 64 8 8.240001 0.879997491836548 0 1 1
lala 4 1.2 first first 18 1 65 -6.6 -3.156 4.43999433517456 0.25 0 1
lala 1 1.2 first first 6 1 66 8 5.28 2.17999649047852 -0.25 0 1
lala 4 1.2 first first 2 1 67 -6.6 -5.556 2.09999656677246 -0.25 0 1
lala 4 1.2 first second 5 1 68 6.6 7.578 0.739997625350952 -0.25 1 -1
lala 3 1.2 second first 17 1 69 -8 -8.240001 0.419997930526733 0.25 1 -1
lala 2 1.2 second second 9 1 70 -8 -9.440001 0.479997873306274 0 1 1
lala 2 1.2 first first 16 1 71 -8 -6.48 0.299998044967651 0.25 0 1
lala 2 1.2 second second 11 1 72 -6.6 -7.578 0.339998006820679 0 1 1
lala 2 1.2 first first 4 1 73 6.6 5.556 1.27999711036682 -0.25 0 1
lala 4 1.2 second second 19 1 74 -6.6 -7.578 0.319998025894165 0.25 1 1
lala 5 2.4 first second 18 1 75 -6.6 -0.7559998 1.51999688148499 0.25 0 -1
lala 5 0.6 second second 5 1 76 6.6 8.178 1.01999735832214 -0.25 1 1
lala 3 1.2 second second 9 1 77 -8 -8.240001 0.639997720718384 0 1 1
lala 3 1.2 first first 13 1 78 6.6 6.378 1.03999733924866 0 1 1
lala 5 2.4 second second 8 1 79 -8 -8.879999 1.75999689102173 0 0 1
lala 4 1.2 first first 9 1 80 -8 -7.040001 0.339998006820679 0 1 1
lala 3 1.2 first second 16 1 81 -8 -5.280001 33.6806349754334 0.25 0 -1
lala 5 2.4 second second 9 1 82 -8 -4.640001 1.89999675750732 0 1 1
lala 3 1.2 second second 12 1 83 6.6 6.756 0.319998025894165 0 0 1
lala 6 4.8 second first 9 1 84 -8 0.1599994 2.35999631881714 0 1 -1
lala 4 1.2 second second 13 1 85 6.6 5.178 1.19999718666077 0 1 1
lala 5 1.2 first second 0 1 86 -8 -2.88 0.519997835159302 -0.25 0 -1
lala 7 2.4 first second 9 1 87 -8 -2.240001 0.679997682571411 0 1 -1
lala 3 1.2 second second 22 1 88 8 7.68 0.439997911453247 0.25 0 1
lala 1 1.2 second first 20 1 89 6.6 4.356 1.49999690055847 0.25 0 -1
lala 4 1.2 second second 17 1 90 -8 -9.440001 0.359997987747192 0.25 1 1
lala 2 1.2 second second 20 1 91 6.6 5.556 1.81999683380127 0.25 0 1
lala 6 1.2 first first 8 1 92 -8 -7.679999 1.07999730110168 0 0 1
lala 3 1.2 second first 20 1 93 6.6 4.356 0.599997758865356 0.25 0 -1
lala 6 1.2 second first 18 1 94 -6.6 -1.956 0.419997930526733 0.25 0 -1
lala 2 1.2 second second 21 1 95 6.6 7.578 0.439997911453247 0.25 1 1
lala 4 1.2 first first 7 1 96 8 7.040001 1.17999720573425 -0.25 1 1
lala 6 1.2 second first 1 1 97 -8 -5.840001 2.75999593734741 -0.25 1 -1
lala 6 4.8 second first 23 1 98 8 2.24 0.779997587203979 0.25 1 -1
lala 4 1.2 first second 20 1 99 6.6 5.556 1.03999733924866 0.25 0 -1
lala 4 1.2 first first 3 1 100 -6.6 -5.178 3.09999561309814 -0.25 1 1
lala 4 1.2 first second 16 1 101 -8 -6.48 1.45999693870544 0.25 0 -1
lala 5 0.6 first first 2 1 102 -6.6 -4.956 0.839997529983521 -0.25 0 1
lala 5 0.6 second second 17 1 103 -8 -8.84 0.539997816085815 0.25 1 1
lala 8 2.4 first second 9 1 104 -8 -4.640001 0.659997701644897 0 1 -1
lala 6 0.6 first second 0 1 105 -8 -3.48 0.519997835159302 -0.25 0 -1
lala 3 1.2 first first 11 1 106 -6.6 -6.378 0.379997968673706 0 1 1
lala 4 1.2 second second 22 1 107 8 6.48 1.05999732017517 0.25 0 1
lala 7 0.6 first second 10 1 108 -6.6 -3.756 0.779997587203979 0 0 -1
lala 5 2.4 second first 7 1 109 8 4.640001 0.719997644424438 -0.25 1 -1
lala 5 1.2 first first 20 1 110 6.6 6.756 0.39999794960022 0.25 0 1
lala 6 0.6 second first 2 1 111 -6.6 -4.356 0.659997701644897 -0.25 0 -1
lala 2 1.2 first second 6 1 112 8 4.08 0.559997797012329 -0.25 0 -1
lala 6 0.3 second second 5 1 113 6.6 7.878 0.359997987747192 -0.25 1 1
lala 4 1.2 first first 12 1 114 6.6 5.556 1.35999703407288 0 0 1
lala 5 1.2 second second 16 1 115 -8 -7.68 0.379997968673706 0.25 0 1
lala 5 1.2 first first 22 1 116 8 5.280001 0.319998025894165 0.25 0 1
lala 7 2.4 second first 23 1 117 8 4.64 0.979997396469116 0.25 1 -1
lala 7 0.6 second first 0 1 118 -8 -4.08 0.659997701644897 -0.25 0 -1
lala 3 1.2 first first 21 1 119 6.6 6.378 1.01999735832214 0.25 1 1
lala 6 1.2 second first 7 1 120 8 5.840001 1.8599967956543 -0.25 1 -1
lala 7 1.2 first first 1 1 121 -8 -7.040001 0.379997968673706 -0.25 1 1
lala 7 0.3 second first 2 1 122 -6.6 -4.656 1.21999716758728 -0.25 0 -1
lala 9 2.4 first first 9 1 123 -8 -7.040001 2.5999960899353 0 1 1
lala 8 0.3 second first 2 1 124 -6.6 -4.956 1.77999687194824 -0.25 0 -1
lala 4 1.2 second first 15 1 125 8 7.040001 2.67999601364136 0 1 -1
lala 6 0.6 first first 16 1 126 -8 -7.08 1.35999703407288 0.25 0 1
lala 4 1.2 first first 21 1 127 6.6 5.178 2.03999662399292 0.25 1 1
lala 3 1.2 second first 4 1 128 6.6 4.356 1.55999684333801 -0.25 0 -1
lala 8 0.3 second first 10 1 129 -6.6 -4.056 1.65999698638916 0 0 -1
lala 8 0.6 first second 0 1 130 -8 -4.68 0.859997510910034 -0.25 0 -1
lala 5 2.4 second first 3 1 131 -6.6 -2.778 0.519997835159302 -0.25 1 -1
lala 9 1.2 first first 0 1 132 -8 -5.88 1.11999726295471 -0.25 0 1
lala 6 0.6 first first 20 1 133 6.6 6.156 2.79999589920044 0.25 0 1
lala 7 0.3 first first 5 1 134 6.6 7.578 0.759997606277466 -0.25 1 1
lala 7 0.6 first first 16 1 135 -8 -6.48 1.35999703407288 0.25 0 1
lala 7 1.2 second first 18 1 136 -6.6 -3.156 3.0399956703186 0.25 0 -1
lala 8 0.6 first second 1 1 137 -8 -6.440001 3.41999530792236 -0.25 1 -1
lala 6 2.4 second first 22 1 138 8 2.880001 1.99999666213989 0.25 0 -1
lala 6 1.2 second first 3 1 139 -6.6 -3.978 0.579997777938843 -0.25 1 -1
lala 3 1.2 first first 6 1 140 8 5.28 2.39999628067017 -0.25 0 1
lala 7 0.6 first first 20 1 141 6.6 5.556 4.65999412536621 0.25 0 1
lala 5 0.6 first first 15 1 142 8 7.640001 5.6399941444397 0 1 1
lala 8 0.3 first first 5 1 143 6.6 7.278 1.31999707221985 -0.25 1 1
lala 7 1.2 second second 3 1 144 -6.6 -5.178 1.17999720573425 -0.25 1 1
lala 9 0.6 second second 5 1 145 6.6 6.678 1.5399968624115 -0.25 1 1
lala 6 0.6 first first 17 1 146 -8 -8.24 0.779997587203979 0.25 1 1
lala 9 0.3 first second 2 1 147 -6.6 -5.256001 0.719997644424438 -0.25 0 -1
lala 9 0.3 second second 1 1 148 -8 -6.740001 1.01999735832214 -0.25 1 1
lala 10 0.6 first first 0 1 149 -8 -5.28 0.599997758865356 -0.25 0 1
lala 4 1.2 first second 6 1 150 8 4.08 1.89999675750732 -0.25 0 -1
lala 5 0.6 second second 19 1 151 -6.6 -6.978 0.699997663497925 0.25 1 1
lala 6 0.3 second first 15 1 152 8 7.340001 0.979997396469116 0 1 -1
lala 5 2.4 second first 13 1 153 6.6 2.778 0.519997835159302 0 1 -1
lala 9 0.3 first first 10 1 154 -6.6 -4.356 4.6399941444397 0 0 1
lala 8 0.6 second first 3 1 155 -6.6 -4.578001 1.27999711036682 -0.25 1 -1
lala 5 0.6 first first 6 1 156 8 4.68 2.07999658584595 -0.25 0 1
lala 4 1.2 first second 4 1 157 6.6 5.556 0.499997854232788 -0.25 0 -1
lala 5 2.4 first second 21 1 158 6.6 2.778 1.17999720573425 0.25 1 -1
lala 10 0.15 second second 10 1 159 -6.6 -4.206 2.79999589920044 0 0 1
lala 8 0.6 second first 20 1 160 6.6 4.956 0.959997415542603 0.25 0 -1
lala 6 0.3 first first 6 1 161 8 4.38 1.05999732017517 -0.25 0 1
lala 10 1.2 first first 5 1 162 6.6 5.478 1.17999720573425 -0.25 1 1
lala 5 1.2 second first 12 1 163 6.6 4.356 1.25999712944031 0 0 -1
lala 10 0.6 second second 2 1 164 -6.6 -5.856 0.739997625350952 -0.25 0 1
lala 7 0.3 second second 14 1 165 8 6.48 0.519997835159302 0 0 1
lala 10 0.15 first first 1 1 166 -8 -6.590001 1.15999722480774 -0.25 1 1
lala 9 0.3 second first 20 1 167 6.6 5.256 1.37999701499939 0.25 0 -1
lala 7 1.2 first first 8 1 168 -8 -6.48 1.89999675750732 0 0 1
lala 6 0.6 second first 12 1 169 6.6 4.956 0.679997682571411 0 0 -1
lala 10 0.3 second second 20 1 170 6.6 5.556 0.639997720718384 0.25 0 1
lala 11 0.6 first second 0 1 171 -8 -4.68 0.519997835159302 -0.25 0 -1
lala 7 0.6 first first 17 1 172 -8 -7.64 0.979997396469116 0.25 1 1
lala 7 1.2 second first 7 1 173 8 7.040001 2.11999654769897 -0.25 1 -1
lala 7 0.3 first first 6 1 174 8 4.079999 4.41999435424805 -0.25 0 1
lala 7 0.15 first first 15 1 175 8 7.490001 2.97999572753906 0 1 1
lala 6 1.2 second first 13 1 176 6.6 3.978 1.57999682426453 0 1 -1
lala 9 0.3 second second 3 1 177 -6.6 -4.878001 2.09999656677246 -0.25 1 1
lala 8 1.2 second first 17 1 178 -8 -6.44 2.03999662399292 0.25 1 -1
lala 10 1.2 second second 9 1 179 -8 -5.840001 0.979997396469116 0 1 1
lala 11 0.15 second first 20 1 180 6.6 5.406 1.87999677658081 0.25 0 -1
lala 11 1.2 first second 9 1 181 -8 -4.640001 0.439997911453247 0 1 -1
lala 8 0.15 first first 14 1 182 8 6.33 1.11999726295471 0 0 1
lala 11 0.15 first first 1 1 183 -8 -6.440001 0.99999737739563 -0.25 1 1
lala 11 0.15 first second 10 1 184 -6.6 -4.056 1.23999714851379 0 0 -1
lala 4 1.2 second second 11 1 185 -6.6 -5.178 0.539997816085815 0 1 1
lala 5 2.4 second first 11 1 186 -6.6 -2.778 0.99999737739563 0 1 -1
lala 6 0.6 first first 19 1 187 -6.6 -6.378 1.75999689102173 0.25 1 1
lala 12 0.6 second first 9 1 188 -8 -5.240001 1.13999724388123 0 1 -1
lala 8 0.075 first first 15 1 189 8 7.415001 0.499997854232788 0 1 1
lala 12 0.075 first first 20 1 190 6.6 5.481 1.5399968624115 0.25 0 1
lala 12 0.3 first second 0 1 191 -8 -4.98 0.639997720718384 -0.25 0 -1
lala 6 1.2 first second 21 1 192 6.6 3.978 0.259998083114624 0.25 1 -1
lala 12 0.075 second second 10 1 193 -6.6 -4.131 1.65999698638916 0 0 1
lala 8 2.4 second first 23 1 194 8 7.04 1.17999720573425 0.25 1 -1
lala 7 1.2 second second 13 1 195 6.6 5.178 0.679997682571411 0 1 1
lala 13 0.0375 first second 20 1 196 6.6 5.4435 0.99999737739563 0.25 0 -1
lala 13 0.0375 second second 10 1 197 -6.6 -4.0935 2.33999633789063 0 0 1
lala 8 1.2 first first 7 1 198 8 8.240001 0.899997472763062 -0.25 1 1
lala 9 0.6 second second 7 1 199 8 7.640001 0.819997549057007 -0.25 1 1
lala 13 0.3 second first 0 1 200 -8 -5.280001 1.29999709129334 -0.25 0 -1
lala 12 0.15 first first 1 1 201 -8 -6.290001 1.01999735832214 -0.25 1 1
lala 8 1.2 first second 18 1 202 -6.6 -4.356 0.439997911453247 0.25 0 -1
lala 8 0.6 second first 13 1 203 6.6 4.578001 1.7199969291687 0 1 -1
lala 7 0.6 second second 12 1 204 6.6 5.556 2.45999622344971 0 0 1
lala 6 1.2 first first 11 1 205 -6.6 -3.978 1.47999691963196 0 1 1
lala 14 0.01875 first first 20 1 206 6.6 5.46225 1.17999720573425 0.25 0 1
lala 8 0.6 second second 16 1 207 -8 -5.880001 0.759997606277466 0.25 0 1
lala 11 2.4 first second 5 1 208 6.6 3.078 1.17999720573425 -0.25 1 -1
lala 9 2.4 first first 23 1 209 8 9.440001 0.919997453689575 0.25 1 1
lala 9 0.6 first first 17 1 210 -8 -7.039999 0.859997510910034 0.25 1 1
lala 10 0.15 second first 3 1 211 -6.6 -4.728001 1.05999732017517 -0.25 1 -1
lala 8 1.2 second second 8 1 212 -8 -5.28 0.479997873306274 0 0 1
lala 15 0.009375 first first 20 1 213 6.6 5.452875 0.559997797012329 0.25 0 1
lala 9 1.2 second first 16 1 214 -8 -4.68 1.0999972820282 0.25 0 -1
lala 7 0.6 first first 19 1 215 -6.6 -5.778 1.25999712944031 0.25 1 1
lala 13 0.3 first first 1 1 216 -8 -5.990001 0.519997835159302 -0.25 1 1
lala 11 0.3 first second 2 1 217 -6.6 -5.556 1.19999718666077 -0.25 0 -1
lala 14 0.3 second second 0 1 218 -8 -5.580001 1.11999726295471 -0.25 0 1
lala 14 0.6 first second 1 1 219 -8 -5.390001 0.499997854232788 -0.25 1 -1
lala 10 1.2 first first 23 1 220 8 8.240001 1.8599967956543 0.25 1 1
lala 5 1.2 first second 4 1 221 6.6 6.756 1.51999688148499 -0.25 0 -1
lala 8 0.3 second first 12 1 222 6.6 5.256 2.31999635696411 0 0 -1
lala 15 0.15 first second 0 1 223 -8 -5.430001 2.47999620437622 -0.25 0 -1
lala 10 0.6 second second 7 1 224 8 7.040001 1.23999714851379 -0.25 1 1
lala 9 2.4 first second 8 1 225 -8 -2.88 0.559997797012329 0 0 -1
lala 12 0.15 first first 2 1 226 -6.6 -5.706 0.799997568130493 -0.25 0 1
lala 8 1.2 first second 19 1 227 -6.6 -4.578 0.639997720718384 0.25 1 -1
lala 11 1.2 second second 23 1 228 8 7.040001 0.39999794960022 0.25 1 1
lala 16 0.075 first first 0 1 229 -8 -5.505001 1.43999695777893 -0.25 0 1
lala 13 0.075 first first 2 1 230 -6.6 -5.631001 0.879997491836548 -0.25 0 1
lala 10 0.6 second first 16 1 231 -8 -5.28 1.07999730110168 0.25 0 -1
lala 6 2.4 first first 4 1 232 6.6 9.156 0.799997568130493 -0.25 0 1
lala 11 0.6 first second 7 1 233 8 6.440001 0.519997835159302 -0.25 1 -1
lala 11 0.075 second second 3 1 234 -6.6 -4.803 1.33999705314636 -0.25 1 1
lala 9 2.4 second second 18 1 235 -6.6 -6.756 1.81999683380127 0.25 0 1
lala 9 0.3 second first 13 1 236 6.6 4.878001 2.07999658584595 0 1 -1
lala 15 0.3 second second 1 1 237 -8 -5.690001 1.83999681472778 -0.25 1 1
lala 12 1.2 first first 5 1 238 6.6 4.278 2.53999614715576 -0.25 1 1
lala 7 1.2 second first 21 1 239 6.6 5.178 2.2999963760376 0.25 1 -1
lala 9 0.15 second first 14 1 240 8 6.18 1.21999716758728 0 0 -1
lala 7 1.2 first first 4 1 241 6.6 7.956 0.659997701644897 -0.25 0 1
lala 16 0.009375 second first 20 1 242 6.6 5.4435 1.23999714851379 0.25 0 -1
lala 8 1.2 second second 4 1 243 6.6 6.756001 1.23999714851379 -0.25 0 1
lala 8 0.3 first first 6 1 244 8 3.779999 2.95999574661255 -0.25 0 1
lala 11 0.6 second first 16 1 245 -8 -5.88 1.25999712944031 0.25 0 -1
lala 9 0.075 second second 15 1 246 8 7.340001 0.99999737739563 0 1 1
lala 9 0.6 first second 19 1 247 -6.6 -5.178 0.919997453689575 0.25 1 -1
lala 10 1.2 first second 8 1 248 -8 -4.08 1.55999684333801 0 0 -1
lala 10 0.6 first first 19 1 249 -6.6 -5.778 0.959997415542603 0.25 1 1
lala 17 0.0046875 first first 20 1 250 6.6 5.448187 1.69999694824219 0.25 0 1
lala 14 0.0375 second first 10 1 251 -6.6 -4.056 0.939997434616089 0 0 -1
lala 8 1.2 second second 21 1 252 6.6 6.378 1.13999724388123 0.25 1 1
lala 9 1.2 first first 4 1 253 6.6 5.556001 1.11999726295471 -0.25 0 1
lala 10 2.4 second first 4 1 254 6.6 3.156001 1.8599967956543 -0.25 0 -1
lala 15 0.01875 second second 10 1 255 -6.6 -4.07475 1.79999685287476 0 0 1
lala 10 1.2 second second 18 1 256 -6.6 -5.556 1.25999712944031 0.25 0 1
lala 9 0.15 second second 12 1 257 6.6 5.406 1.27999711036682 0 0 1
lala 9 0.6 first second 21 1 258 6.6 5.778 0.61999773979187 0.25 1 -1
lala 16 0.009375 second first 10 1 259 -6.6 -4.065375 1.63999700546265 0 0 -1
lala 12 1.2 second second 23 1 260 8 5.840001 0.879997491836548 0.25 1 1
lala 7 0.6 first second 11 1 261 -6.6 -3.378 1.11999726295471 0 1 -1
lala 9 0.6 second first 6 1 262 8 3.179999 0.719997644424438 -0.25 0 -1
lala 13 2.4 first second 23 1 263 8 3.440001 0.639997720718384 0.25 1 -1
lala 13 0.6 second first 5 1 264 6.6 3.678 1.65999698638916 -0.25 1 -1
lala 11 1.2 first first 8 1 265 -8 -5.28 4.25999450683594 0 0 1
lala 12 0.3 second second 7 1 266 8 6.740001 1.83999681472778 -0.25 1 1
lala 13 0.15 first first 7 1 267 8 6.590001 1.29999709129334 -0.25 1 1
lala 11 1.2 first second 18 1 268 -6.6 -4.356 0.579997777938843 0.25 0 -1
lala 12 0.0375 second first 3 1 269 -6.6 -4.765501 2.21999645233154 -0.25 1 -1
lala 10 0.3 first first 21 1 270 6.6 6.078001 1.33999705314636 0.25 1 1
lala 10 0.075 first first 14 1 271 8 6.255 1.35999703407288 0 0 1
lala 17 0.0375 first second 0 1 272 -8 -5.467501 1.99999666213989 -0.25 0 -1
lala 10 0.075 second second 15 1 273 8 7.265001 1.55999684333801 0 1 1
lala 13 0.6 second second 9 1 274 -8 -5.840001 0.719997644424438 0 1 1
lala 18 0.01875 second second 0 1 275 -8 -5.486251 1.05999732017517 -0.25 0 1
lala 14 0.3 first second 9 1 276 -8 -5.540001 1.05999732017517 0 1 -1
lala 12 0.6 first first 8 1 277 -8 -4.68 0.899997472763062 0 0 1
lala 12 0.6 second second 18 1 278 -6.6 -4.956 2.33999633789063 0.25 0 1
lala 19 0.009375 second second 0 1 279 -8 -5.476876 0.879997491836548 -0.25 0 1
lala 11 0.3 second second 19 1 280 -6.6 -5.478 1.45999693870544 0.25 1 1
lala 18 0.00234375 second first 20 1 281 6.6 5.445844 2.11999654769897 0.25 0 -1
lala 13 0.3 second first 18 1 282 -6.6 -4.656 0.979997396469116 0.25 0 -1
lala 10 0.075 first first 12 1 283 6.6 5.331 1.83999681472778 0 0 1
lala 8 0.3 first first 11 1 284 -6.6 -3.678 2.97999572753906 0 1 1
lala 14 0.075 first first 2 1 285 -6.6 -5.556001 0.699997663497925 -0.25 0 1
lala 9 0.15 second first 11 1 286 -6.6 -3.528 0.439997911453247 0 1 -1
lala 11 1.2 first second 4 1 287 6.6 4.356001 1.37999701499939 -0.25 0 -1
lala 7 1.2 second first 22 1 288 8 4.080001 1.33999705314636 0.25 0 -1
lala 12 0.6 first first 16 1 289 -8 -6.48 0.61999773979187 0.25 0 1
lala 10 0.3 first first 17 1 290 -8 -6.739999 0.279998064041138 0.25 1 1
lala 14 0.3 second first 5 1 291 6.6 3.978 0.599997758865356 -0.25 1 -1
lala 15 0.075 first second 2 1 292 -6.6 -5.481001 0.539997816085815 -0.25 0 -1
lala 8 1.2 first second 22 1 293 8 5.280001 2.49999618530273 0.25 0 -1
lala 13 0.01875 second second 3 1 294 -6.6 -4.784251 2.17999649047852 -0.25 1 1
lala 11 0.0375 first first 14 1 295 8 6.2175 1.79999685287476 0 0 1
lala 12 0.3 second second 19 1 296 -6.6 -5.177999 0.99999737739563 0.25 1 1
lala 10 0.3 first first 6 1 297 8 3.479999 0.579997777938843 -0.25 0 1
lala 11 0.15 first second 6 1 298 8 3.329999 0.799997568130493 -0.25 0 -1
lala 15 0.15 second second 9 1 299 -8 -5.690001 0.259998083114624 0 1 1
lala 13 0.6 second first 8 1 300 -8 -4.08 0.519997835159302 0 0 -1
lala 14 0.15 first first 7 1 301 8 6.440001 0.339998006820679 -0.25 1 1
lala 19 0.001171875 first first 20 1 302 6.6 5.447016 2.159996509552 0.25 0 1
lala 15 0.3 first first 5 1 303 6.6 4.278 8.70006418228149 -0.25 1 1
lala 11 0.075 second first 12 1 304 6.6 5.256 0.679997682571411 0 0 -1
lala 16 0.075 first first 9 1 305 -8 -5.615001 0.679997682571411 0 1 1
lala 16 0.0375 second second 2 1 306 -6.6 -5.518501 0.679997682571411 -0.25 0 1
lala 14 0.15 first second 18 1 307 -6.6 -4.806 1.87999677658081 0.25 0 -1
lala 15 0.15 second second 7 1 308 8 6.290001 0.779997587203979 -0.25 1 1
lala 14 1.2 second first 23 1 309 8 4.640001 1.13999724388123 0.25 1 -1
lala 14 0.009375 first second 3 1 310 -6.6 -4.774876 0.439997911453247 -0.25 1 -1
lala 17 0.01875 first first 2 1 311 -6.6 -5.499751 0.419997930526733 -0.25 0 1
lala 10 0.3 second first 13 1 312 6.6 5.178001 1.35999703407288 0 1 -1
lala 12 1.2 second second 4 1 313 6.6 5.556001 0.579997777938843 -0.25 0 1
lala 16 0.15 second second 1 1 314 -8 -5.540001 1.8599967956543 -0.25 1 1
lala 12 0.0375 first first 14 1 315 8 6.18 0.759997606277466 0 0 1
lala 9 1.2 second second 22 1 316 8 6.48 0.379997968673706 0.25 0 1
lala 17 0.15 first first 1 1 317 -8 -5.390001 0.819997549057007 -0.25 1 1
lala 20 0.0005859375 first first 20 1 318 6.6 5.44643 0.419997930526733 0.25 0 1
lala 17 0.0046875 second first 10 1 319 -6.6 -4.070063 0.799997568130493 0 0 -1
lala 18 0.0046875 first second 10 1 320 -6.6 -4.07475 2.13999652862549 0 0 -1
lala 18 0.15 first second 1 1 321 -8 -5.240001 1.63999700546265 -0.25 1 -1
lala 13 0.0375 second first 14 1 322 8 6.1425 3.05999565124512 0 0 -1
lala 10 0.6 first first 22 1 323 8 5.880001 0.799997568130493 0.25 0 1
lala 21 0.0005859375 first second 20 1 324 6.6 5.445844 0.679997682571411 0.25 0 -1
lala 20 0.009375 first second 0 1 325 -8 -5.467501 1.23999714851379 -0.25 0 -1
lala 11 0.3 second first 13 1 326 6.6 5.478001 1.0999972820282 0 1 -1
lala 15 0.15 second first 18 1 327 -6.6 -4.956 1.35999703407288 0.25 0 -1
lala 16 0.3 second second 7 1 328 8 5.990001 1.0999972820282 -0.25 1 1
lala 13 0.3 second second 16 1 329 -8 -6.18 0.419997930526733 0.25 0 1
lala 13 0.3 first first 19 1 330 -6.6 -4.877999 1.03999733924866 0.25 1 1
lala 15 1.2 first second 23 1 331 8 5.840001 0.679997682571411 0.25 1 -1
lala 11 0.15 second second 21 1 332 6.6 5.928 2.37999629974365 0.25 1 1
lala 12 0.0375 second first 12 1 333 6.6 5.2935 3.79999494552612 0 0 -1
lala 12 0.6 first first 13 1 334 6.6 6.078001 1.41999697685242 0 1 1
lala 16 0.15 first first 18 1 335 -6.6 -5.106 0.579997777938843 0.25 0 1
lala 18 0.01875 second second 2 1 336 -6.6 -5.481 1.19999718666077 -0.25 0 1
lala 14 0.3 second first 16 1 337 -8 -5.88 0.939997434616089 0.25 0 -1
lala 22 0.0002929688 second first 20 1 338 6.6 5.446136 0.939997434616089 0.25 0 -1
lala 12 0.15 first first 21 1 339 6.6 5.778 0.539997816085815 0.25 1 1
lala 13 0.6 first second 4 1 340 6.6 4.956001 0.39999794960022 -0.25 0 -1
lala 16 1.2 first first 23 1 341 8 7.040001 0.319998025894165 0.25 1 1
lala 23 0.0002929688 second second 20 1 342 6.6 5.446429 0.679997682571411 0.25 0 1
lala 24 0.0001464844 second second 20 1 343 6.6 5.446283 0.939997434616089 0.25 0 1
lala 17 0.6 second second 23 1 344 8 6.440001 1.69999694824219 0.25 1 1
lala 19 0.075 first first 1 1 345 -8 -5.315001 0.939997434616089 -0.25 1 1
lala 17 0.6 first second 7 1 346 8 5.390001 0.339998006820679 -0.25 1 -1
lala 12 0.075 first first 6 1 347 8 3.404999 0.279998064041138 -0.25 0 1
lala 13 0.15 first first 21 1 348 6.6 5.628 0.959997415542603 0.25 1 1
lala 17 0.075 first second 18 1 349 -6.6 -5.031 0.819997549057007 0.25 0 -1
lala 14 0.01875 second second 14 1 350 8 6.16125 0.299998044967651 0 0 1
lala 15 0.009375 second first 14 1 351 8 6.151875 2.13999652862549 0 0 -1
lala 14 0.3 first second 21 1 352 6.6 5.328 2.53999614715576 0.25 1 -1
lala 16 0.0046875 second second 14 1 353 8 6.156562 1.13999724388123 0 0 1
lala 13 0.3 first first 13 1 354 6.6 5.778001 5.11999368667603 0 1 1
lala 11 0.15 second second 15 1 355 8 7.115001 0.519997835159302 0 1 1
lala 15 0.15 second first 21 1 356 6.6 5.478 0.779997587203979 0.25 1 -1
lala 14 0.3 second second 13 1 357 6.6 5.478001 0.559997797012329 0 1 1
lala 14 0.3 first second 8 1 358 -8 -4.38 0.23999810218811 0 0 -1
lala 18 0.0375 second second 18 1 359 -6.6 -5.0685 0.99999737739563 0.25 0 1
lala 19 0.01875 first second 2 1 360 -6.6 -5.46225 0.679997682571411 -0.25 0 -1
lala 15 0.3 first second 8 1 361 -8 -4.68 1.05999732017517 0 0 -1
lala 17 0.075 second second 9 1 362 -8 -5.540001 0.319998025894165 0 1 1
lala 18 0.6 first first 23 1 363 8 5.840001 0.279998064041138 0.25 1 1
lala 12 0.3 second second 15 1 364 8 6.815001 0.439997911453247 0 1 1
lala 18 0.075 second first 9 1 365 -8 -5.465002 1.57999682426453 0 1 -1
lala 15 0.15 first first 16 1 366 -8 -6.03 0.439997911453247 0.25 0 1
lala 14 0.6 first second 19 1 367 -6.6 -4.277999 0.639997720718384 0.25 1 -1
lala 16 0.3 second second 8 1 368 -8 -4.98 0.839997529983521 0 0 1
lala 13 0.0375 first first 12 1 369 6.6 5.331 0.379997968673706 0 0 1
lala 13 0.0375 second first 6 1 370 8 3.367499 0.719997644424438 -0.25 0 -1
lala 20 0.0375 second second 1 1 371 -8 -5.277501 1.75999689102173 -0.25 1 1
lala 11 0.6 second first 22 1 372 8 5.280001 1.07999730110168 0.25 0 -1
lala 15 0.0046875 second first 3 1 373 -6.6 -4.779563 2.43999624252319 -0.25 1 -1
lala 16 0.0046875 first first 3 1 374 -6.6 -4.78425 1.03999733924866 -0.25 1 1
lala 16 0.075 second first 16 1 375 -8 -5.955 0.719997644424438 0.25 0 -1
lala 13 0.6 second second 15 1 376 8 6.215001 0.679997682571411 0 1 1
lala 10 0.075 first second 11 1 377 -6.6 -3.603 0.379997968673706 0 1 -1
lala 16 0.15 first second 5 1 378 6.6 4.128 0.279998064041138 -0.25 1 -1
lala 21 0.0375 first first 1 1 379 -8 -5.240001 1.93999671936035 -0.25 1 1
lala 11 0.3 first first 17 1 380 -8 -6.439999 0.419997930526733 0.25 1 1
lala 21 0.0046875 first second 0 1 381 -8 -5.472188 0.919997453689575 -0.25 0 -1
lala 22 0.0375 second first 1 1 382 -8 -5.202501 0.679997682571411 -0.25 1 -1
lala 14 0.3 first second 4 1 383 6.6 5.256001 0.61999773979187 -0.25 0 -1
lala 19 0.0046875 first second 10 1 384 -6.6 -4.079437 1.3999969959259 0 0 -1
lala 20 0.009375 second second 10 1 385 -6.6 -4.088812 0.61999773979187 0 0 1
lala 20 0.009375 second second 2 1 386 -6.6 -5.471625 0.439997911453247 -0.25 0 1
lala 12 0.3 second second 17 1 387 -8 -6.139999 0.859997510910034 0.25 1 1
lala 15 0.3 first second 19 1 388 -6.6 -4.578 0.379997968673706 0.25 1 -1
lala 22 0.0046875 second first 0 1 389 -8 -5.476875 1.07999730110168 -0.25 0 -1
lala 15 0.3 second second 13 1 390 6.6 5.178 2.45999622344971 0 1 1
lala 14 0.01875 first first 6 1 391 8 3.386249 0.99999737739563 -0.25 0 1
lala 12 0.3 second first 22 1 392 8 5.580001 1.33999705314636 0.25 0 -1
lala 19 0.01875 first second 18 1 393 -6.6 -5.04975 0.359997987747192 0.25 0 -1
lala 20 0.009375 first first 18 1 394 -6.6 -5.059125 1.47999691963196 0.25 0 1
lala 17 0.15 second second 8 1 395 -8 -4.83 0.839997529983521 0 0 1
lala 11 0.075 second first 11 1 396 -6.6 -3.678 0.539997816085815 0 1 -1
lala 21 0.0046875 second first 10 1 397 -6.6 -4.084125 0.879997491836548 0 0 -1
lala 17 0.075 second first 5 1 398 6.6 4.203 1.01999735832214 -0.25 1 -1
lala 22 0.00234375 second second 10 1 399 -6.6 -4.086469 1.0999972820282 0 0 1
lala 19 0.6 first second 23 1 400 8 5.240001 0.379997968673706 0.25 1 -1
lala 17 0.00234375 first first 14 1 401 8 6.154219 1.69999694824219 0 0 1
lala 20 0.3 second second 23 1 402 8 5.540001 0.739997625350952 0.25 1 1
lala 15 0.3 first first 4 1 403 6.6 5.556001 1.25999712944031 -0.25 0 1
lala 23 0.01875 second second 1 1 404 -8 -5.221251 1.8599967956543 -0.25 1 1
lala 13 0.3 second first 22 1 405 8 5.880001 3.93999481201172 0.25 0 -1
lala 18 0.00234375 second second 14 1 406 8 6.151875 0.439997911453247 0 0 1
lala 14 1.2 second second 15 1 407 8 5.015001 0.599997758865356 0 1 1
lala 16 0.15 second second 21 1 408 6.6 5.628 1.03999733924866 0.25 1 1
lala 23 0.0046875 first second 0 1 409 -8 -5.481563 4.69999408721924 -0.25 0 -1
lala 12 0.075 second first 11 1 410 -6.6 -3.753 0.559997797012329 0 1 -1
lala 16 0.3 second first 19 1 411 -6.6 -4.878 0.799997568130493 0.25 1 -1
lala 19 0.00234375 second second 14 1 412 8 6.149531 1.51999688148499 0 0 1
lala 18 0.15 second second 8 1 413 -8 -4.68 1.21999716758728 0 0 1
lala 16 0.15 first second 4 1 414 6.6 5.406001 4.55999422073364 -0.25 0 -1
lala 17 0.0375 second second 16 1 415 -8 -5.9925 0.919997453689575 0.25 0 1
lala 23 0.001171875 second first 10 1 416 -6.6 -4.085297 0.879997491836548 0 0 -1
lala 17 0.075 second first 4 1 417 6.6 5.481001 1.29999709129334 -0.25 0 -1
lala 18 0.3 first first 7 1 418 8 5.690001 0.519997835159302 -0.25 1 1
lala 18 0.075 second first 5 1 419 6.6 4.277999 1.25999712944031 -0.25 1 -1
lala 14 0.3 first second 22 1 420 8 6.180001 0.979997396469116 0.25 0 -1
lala 25 0.0001464844 second first 20 1 421 6.6 5.446136 0.719997644424438 0.25 0 -1
lala 17 0.00234375 first second 3 1 422 -6.6 -4.781907 0.939997434616089 -0.25 1 -1
lala 18 0.001171875 second second 3 1 423 -6.6 -4.783079 1.55999684333801 -0.25 1 1
lala 18 0.01875 second second 16 1 424 -8 -5.97375 0.559997797012329 0.25 0 1
lala 18 0.075 first first 4 1 425 6.6 5.556001 1.65999698638916 -0.25 0 1
lala 21 0.0046875 first first 2 1 426 -6.6 -5.466938 0.759997606277466 -0.25 0 1
lala 15 0.009375 first second 6 1 427 8 3.376874 0.299998044967651 -0.25 0 -1
lala 19 0.01875 first first 16 1 428 -8 -5.954999 0.579997777938843 0.25 0 1
lala 16 0.6 second first 13 1 429 6.6 4.578001 0.879997491836548 0 1 -1
lala 17 0.3 first first 13 1 430 6.6 4.878001 0.859997510910034 0 1 1
lala 26 7.324219E-05 first first 20 1 431 6.6 5.44621 1.37999701499939 0.25 0 1
lala 15 0.6 first first 22 1 432 8 6.780001 0.319998025894165 0.25 0 1
lala 16 0.3 first first 22 1 433 8 6.480001 0.559997797012329 0.25 0 1
lala 15 2.4 first second 15 1 434 8 2.615001 0.579997777938843 0 1 -1
lala 13 0.15 second second 11 1 435 -6.6 -3.903 1.07999730110168 0 1 1
lala 20 0.0046875 second second 14 1 436 8 6.144844 0.279998064041138 0 0 1
lala 24 0.009375 first second 0 1 437 -8 -5.490938 0.61999773979187 -0.25 0 -1
lala 24 0.0005859375 second second 10 1 438 -6.6 -4.085883 0.479997873306274 0 0 1
lala 19 0.075 first second 5 1 439 6.6 4.352999 0.499997854232788 -0.25 1 -1
lala 18 0.15 first second 13 1 440 6.6 4.728001 0.519997835159302 0 1 -1
lala 24 0.009375 second second 1 1 441 -8 -5.211876 0.39999794960022 -0.25 1 1
lala 14 0.075 second first 11 1 442 -6.6 -3.828 0.299998044967651 0 1 -1
lala 14 0.01875 second second 12 1 443 6.6 5.31225 0.719997644424438 0 0 1
lala 25 0.01875 first second 0 1 444 -8 -5.509688 0.479997873306274 -0.25 0 -1
lala 19 0.15 second first 7 1 445 8 5.540001 1.07999730110168 -0.25 1 -1
lala 19 0.075 first second 13 1 446 6.6 4.803 0.599997758865356 0 1 -1
lala 15 0.0375 second first 11 1 447 -6.6 -3.8655 0.479997873306274 0 1 -1
lala 25 0.0002929688 second first 10 1 449 -6.6 -4.08559 1.07999730110168 0 0 -1
lala 17 0.075 second first 21 1 450 6.6 5.553 1.59999680519104 0.25 1 -1
lala 17 0.3 first first 22 1 452 8 6.180001 0.899997472763062 0.25 0 1
lala 19 0.0005859375 second first 3 1 453 -6.6 -4.782493 0.539997816085815 -0.25 1 -1
lala 17 0.3 first first 19 1 454 -6.6 -5.178 0.0599982738494873 0.25 1 1
lala 26 0.0001464844 first second 10 1 455 -6.6 -4.085736 0.479997873306274 0 0 -1
lala 20 0.15 second first 5 1 456 6.6 4.502999 0.959997415542603 -0.25 1 -1
lala 26 0.0375 second second 0 1 457 -8 -5.547188 0.979997396469116 -0.25 0 1
lala 20 0.01875 second second 16 1 458 -8 -5.936249 0.799997568130493 0.25 0 1
lala 19 0.0375 first first 9 1 459 -8 -5.502501 0.599997758865356 0 1 1
lala 18 0.3 second second 22 1 460 8 5.880001 0.759997606277466 0.25 0 1
lala 13 0.6 second second 17 1 461 -8 -5.539999 0.899997472763062 0.25 1 1
lala 16 0.0046875 first first 6 1 462 8 3.381562 0.339998006820679 -0.25 0 1
lala 20 0.075 second first 7 1 463 8 5.615001 1.21999716758728 -0.25 1 -1
lala 19 0.0375 second second 4 1 464 6.6 5.518501 1.05999732017517 -0.25 0 1
lala 15 0.01875 first second 12 1 465 6.6 5.293499 0.679997682571411 0 0 -1
lala 18 0.0375 second first 21 1 466 6.6 5.5905 0.939997434616089 0.25 1 -1
lala 19 0.15 second first 8 1 467 -8 -4.53 1.19999718666077 0 0 -1
lala 21 0.009375 second second 14 1 468 8 6.135469 0.479997873306274 0 0 1
lala 21 0.0046875 first second 18 1 469 -6.6 -5.054438 0.319998025894165 0.25 0 -1
lala 20 0.01875 first first 9 1 470 -8 -5.483751 0.819997549057007 0 1 1
lala 16 0.0375 second first 11 1 471 -6.6 -3.903 0.579997777938843 0 1 -1
lala 16 0.009375 first second 12 1 472 6.6 5.302875 0.39999794960022 0 0 -1
lala 17 0.00234375 second first 6 1 473 8 3.379218 0.659997701644897 -0.25 0 -1
lala 25 0.009375 second second 1 1 474 -8 -5.202501 1.55999684333801 -0.25 1 1
lala 18 0.001171875 first second 6 1 475 8 3.38039 0.39999794960022 -0.25 0 -1
lala 22 0.0046875 second second 2 1 476 -6.6 -5.462251 0.599997758865356 -0.25 0 1
lala 17 0.0375 first second 11 1 477 -6.6 -3.9405 0.559997797012329 0 1 -1
lala 20 0.0002929688 first first 3 1 478 -6.6 -4.782785 0.39999794960022 -0.25 1 1
lala 22 0.01875 second second 14 1 479 8 6.116719 0.379997968673706 0 0 1
lala 22 0.00234375 first second 18 1 480 -6.6 -5.056781 0.519997835159302 0.25 0 -1
lala 20 0.0375 first first 4 1 481 6.6 5.481001 0.839997529983521 -0.25 0 1
lala 16 1.2 first second 15 1 482 8 3.815001 0.519997835159302 0 1 -1
lala 23 0.0375 second first 14 1 483 8 6.079219 0.61999773979187 0 0 -1
lala 21 0.0375 second second 16 1 484 -8 -5.898749 0.879997491836548 0.25 0 1
lala 21 0.075 second second 7 1 485 8 5.690001 0.519997835159302 -0.25 1 1
lala 27 0.01875 first first 0 1 486 -8 -5.528438 0.579997777938843 -0.25 0 1
lala 19 0.0375 first second 21 1 487 6.6 5.628 1.0999972820282 0.25 1 -1
lala 21 0.0001464844 first first 3 1 488 -6.6 -4.782639 0.919997453689575 -0.25 1 1
lala 18 0.075 first second 11 1 489 -6.6 -4.0155 0.699997663497925 0 1 -1
lala 26 0.009375 first first 1 1 491 -8 -5.193126 1.75999689102173 -0.25 1 1
lala 17 0.009375 first first 12 1 492 6.6 5.31225 0.879997491836548 0 0 1
lala 21 0.01875 second second 9 1 495 -8 -5.465001 0.319998025894165 0 1 1
lala 14 1.2 second first 17 1 496 -8 -4.339999 0.559997797012329 0.25 1 -1
lala 20 0.075 first first 13 1 497 6.6 4.878 0.859997510910034 0 1 1
lala 21 0.15 second first 23 1 498 8 5.390001 0.699997663497925 0.25 1 -1
lala 17 1.2 first second 15 1 499 8 5.015001 0.639997720718384 0 1 -1
lala 22 0.0375 first second 7 1 500 8 5.652501 0.959997415542603 -0.25 1 -1
lala 18 1.2 second second 15 1 501 8 6.215001 0.299998044967651 0 1 1
lala 23 0.0046875 second second 2 1 502 -6.6 -5.457563 0.719997644424438 -0.25 0 1
lala 22 0.01875 first first 9 1 503 -8 -5.446251 362.517999172211 0 1 1
lala 19 0.001171875 first second 6 1 504 8 3.381562 1.03999733924866 -0.25 0 -1
lala 15 0.6 first second 17 1 505 -8 -4.939999 0.559997797012329 0.25 1 -1
lala 19 0.6 second first 15 1 506 8 5.615001 0.759997606277466 0 1 -1
lala 18 0.15 first second 19 1 507 -6.6 -5.028 1.43999695777893 0.25 1 -1
lala 19 0.6 second second 22 1 509 8 5.280001 6.02000284194946 0.25 0 1
lala 20 0.3 second second 15 1 511 8 5.915001 0.439997911453247 0 1 1
lala 23 0.00234375 second first 18 1 512 -6.6 -5.059125 0.959997415542603 0.25 0 -1
lala 21 0.3 first second 5 1 513 6.6 4.802999 0.339998006820679 -0.25 1 -1
lala 20 1.2 first first 22 1 514 8 4.080001 0.459997892379761 0.25 0 1
lala 24 0.00234375 first second 18 1 515 -6.6 -5.061469 0.559997797012329 0.25 0 -1
lala 28 0.01875 first first 0 1 516 -8 -5.509687 1.27999711036682 -0.25 0 1
lala 22 0.6 second second 5 1 517 6.6 5.402999 1.29999709129334 -0.25 1 1
lala 21 0.0375 second second 13 1 519 6.6 4.8405 0.739997625350952 0 1 1
lala 25 0.0046875 first second 18 1 521 -6.6 -5.066156 0.319998025894165 0.25 0 -1
lala 20 0.0375 second first 21 1 522 6.6 5.6655 0.779997587203979 0.25 1 -1
lala 27 0.01875 second first 1 1 523 -8 -5.174376 0.459997892379761 -0.25 1 -1
lala 16 0.6 first second 17 1 524 -8 -5.539999 0.799997568130493 0.25 1 -1
lala 21 0.075 first first 21 1 525 6.6 5.7405 1.05999732017517 0.25 1 1
lala 23 0.0375 second second 9 1 526 -8 -5.408751 0.419997930526733 0 1 1
lala 23 0.3 second first 5 1 527 6.6 5.102999 1.13999724388123 -0.25 1 -1
lala 18 0.0046875 second first 12 1 528 6.6 5.307562 2.2999963760376 0 0 -1
lala 20 0.001171875 second first 6 1 529 8 3.382734 0.579997777938843 -0.25 0 -1
lala 22 0.075 second first 23 1 530 8 5.465001 0.599997758865356 0.25 1 -1
lala 21 0.15 first first 15 1 531 8 5.765001 0.359997987747192 0 1 1
lala 24 0.01875 second second 14 1 532 8 6.097969 0.479997873306274 0 0 1
lala 22 0.0375 first first 13 1 533 6.6 4.803 1.41999697685242 0 1 1
lala 25 0.009375 second second 14 1 534 8 6.088594 1.21999716758728 0 0 1
lala 20 0.075 first second 8 1 535 -8 -4.605 1.61999702453613 0 0 -1
lala 26 0.009375 first first 14 1 536 8 6.079219 1.45999693870544 0 0 1
lala 26 0.009375 second first 18 1 537 -6.6 -5.075531 0.579997777938843 0.25 0 -1
lala 21 0.0375 first first 4 1 538 6.6 5.443501 0.579997777938843 -0.25 0 1
lala 19 0.00234375 second first 12 1 539 6.6 5.309906 0.559997797012329 0 0 -1
lala 17 0.6 second second 17 1 540 -8 -6.139999 0.719997644424438 0.25 1 1
lala 19 0.15 first second 11 1 542 -6.6 -4.1655 0.539997816085815 0 1 -1
lala 22 0.075 first first 16 1 543 -8 -5.82375 0.659997701644897 0.25 0 1
lala 19 0.075 first second 19 1 544 -6.6 -5.103 0.299998044967651 0.25 1 -1
lala 23 0.075 second second 23 1 545 8 5.540001 1.87999677658081 0.25 1 1
lala 29 0.01875 first second 0 1 546 -8 -5.490937 0.319998025894165 -0.25 0 -1
lala 21 0.075 first second 8 1 547 -8 -4.68 0.339998006820679 0 0 -1
lala 23 0.15 second first 16 1 548 -8 -5.673749 0.759997606277466 0.25 0 -1
lala 22 0.075 first second 8 1 549 -8 -4.755 0.379997968673706 0 0 -1
lala 24 0.0375 first second 23 1 550 8 5.502501 0.579997777938843 0.25 1 -1
lala 24 0.075 second second 16 1 551 -8 -5.748749 0.319998025894165 0.25 0 1
lala 22 0.075 first first 4 1 552 6.6 5.368501 0.379997968673706 -0.25 0 1
lala 23 0.15 second second 4 1 553 6.6 5.218501 1.89999675750732 -0.25 0 1
lala 22 0.0001464844 second first 3 1 554 -6.6 -4.782493 0.599997758865356 -0.25 1 -1
lala 24 0.15 second second 5 1 555 6.6 5.252999 1.07999730110168 -0.25 1 1
lala 23 0.01875 second second 7 1 556 8 5.671251 0.719997644424438 -0.25 1 1
lala 24 0.075 second first 9 1 560 -8 -5.333751 1.5399968624115 0 1 -1
lala 22 0.15 first second 15 1 561 8 5.615001 0.259998083114624 0 1 -1
lala 18 0.3 first second 17 1 563 -8 -5.839999 0.819997549057007 0.25 1 -1
lala 27 0.009375 first second 14 1 564 8 6.069844 2.95999574661255 0 0 -1
lala 23 0.15 second first 8 1 565 -8 -4.905 1.19999718666077 0 0 -1
lala 21 0.00234375 first second 6 1 566 8 3.385077 1.03999733924866 -0.25 0 -1
lala 28 0.009375 second second 1 1 567 -8 -5.183751 1.15999722480774 -0.25 1 1
lala 20 0.075 second first 19 1 568 -6.6 -5.177999 2.07999658584595 0.25 1 -1
lala 23 0.0375 first second 13 1 569 6.6 4.765501 0.459997892379761 0 1 -1
lala 29 0.0046875 second second 1 1 570 -8 -5.179063 0.519997835159302 -0.25 1 1
lala 24 0.01875 first first 13 1 571 6.6 4.784251 0.61999773979187 0 1 1
lala 28 0.0046875 first first 14 1 572 8 6.074531 0.279998064041138 0 0 1
lala 25 0.01875 second second 23 1 573 8 5.521251 0.579997777938843 0.25 1 1
lala 25 0.0375 first first 9 1 574 -8 -5.371251 0.99999737739563 0 1 1
lala 24 0.3 second first 8 1 575 -8 -5.205 1.27999711036682 0 0 -1
lala 21 0.075 first second 19 1 576 -6.6 -5.252999 0.499997854232788 0.25 1 -1
lala 23 7.324219E-05 first first 3 1 577 -6.6 -4.782566 0.499997854232788 -0.25 1 1
lala 30 0.009375 second second 0 1 578 -8 -5.500312 0.779997587203979 -0.25 0 1
lala 31 0.0046875 first first 0 1 579 -8 -5.495625 0.759997606277466 -0.25 0 1
lala 21 2.4 first second 22 1 580 8 1.680001 0.799997568130493 0.25 0 -1
lala 32 0.0046875 second first 0 1 581 -8 -5.490938 0.879997491836548 -0.25 0 -1
lala 33 0.00234375 first first 0 1 582 -8 -5.493281 0.759997606277466 -0.25 0 1
lala 26 0.01875 second first 9 1 583 -8 -5.352501 0.439997911453247 0 1 -1
lala 24 3.66211E-05 first first 3 1 584 -6.6 -4.782529 0.739997625350952 -0.25 1 1
lala 30 0.0046875 first first 1 1 585 -8 -5.174376 0.539997816085815 -0.25 1 1
lala 25 3.66211E-05 first first 3 1 586 -6.6 -4.782493 0.279998064041138 -0.25 1 1
lala 19 0.15 second first 17 1 587 -8 -5.989999 0.659997701644897 0.25 1 -1
lala 24 0.009375 first first 2 1 588 -6.6 -5.448188 0.299998044967651 -0.25 0 1
lala 22 0.0375 second second 21 1 589 6.6 5.703 0.279998064041138 0.25 1 1
lala 25 0.01875 first first 2 1 590 -6.6 -5.429438 0.319998025894165 -0.25 0 1
lala 20 0.3 first first 11 1 591 -6.6 -4.4655 0.359997987747192 0 1 1
lala 31 0.0046875 first first 1 1 592 -8 -5.169689 0.979997396469116 -0.25 1 1
lala 25 0.0375 first second 16 1 593 -8 -5.711249 0.519997835159302 0.25 0 -1
lala 22 0.15 second second 19 1 594 -6.6 -5.402999 0.379997968673706 0.25 1 1
lala 26 0.0375 first first 2 1 595 -6.6 -5.391938 0.259998083114624 -0.25 0 1
lala 26 3.66211E-05 first second 3 1 597 -6.6 -4.782456 0.419997930526733 -0.25 1 -1
lala 25 0.075 first first 5 1 598 6.6 5.177999 1.07999730110168 -0.25 1 1
lala 21 0.15 second second 11 1 599 -6.6 -4.3155 2.51999616622925 0 1 1
lala 20 0.00234375 first first 12 1 600 6.6 5.31225 0.719997644424438 0 0 1
lala 22 1.2 second first 22 1 601 8 2.880001 2.45999622344971 0.25 0 -1
lala 22 0.0046875 first first 6 1 602 8 3.389765 0.939997434616089 -0.25 0 1
lala 20 0.15 second second 17 1 603 -8 -6.139999 0.159998178482056 0.25 1 1
lala 26 0.01875 first first 16 1 604 -8 -5.73 0.659997701644897 0.25 0 1
lala 23 1.2 first second 22 1 605 8 4.080001 0.339998006820679 0.25 0 -1
lala 27 0.075 first first 2 1 606 -6.6 -5.316938 1.29999709129334 -0.25 0 1
lala 23 0.075 second second 19 1 607 -6.6 -5.328 1.07999730110168 0.25 1 1
lala 21 0.001171875 second second 12 1 608 6.6 5.311078 0.679997682571411 0 0 1
lala 24 1.2 second second 22 1 609 8 5.280001 0.679997682571411 0.25 0 1
lala 27 0.009375 second second 16 1 610 -8 -5.720624 0.659997701644897 0.25 0 1
lala 24 0.009375 second second 7 1 611 8 5.661876 0.519997835159302 -0.25 1 1
lala 25 0.6 second second 22 1 612 8 4.680001 0.939997434616089 0.25 0 1
lala 28 0.009375 first first 16 1 613 -8 -5.711249 0.259998083114624 0.25 0 1
lala 29 0.00234375 second second 14 1 614 8 6.072187 0.459997892379761 0 0 1
lala 34 0.001171875 second second 0 1 616 -8 -5.492109 0.679997682571411 -0.25 0 1
lala 23 0.00234375 first first 6 1 617 8 3.387421 0.479997873306274 -0.25 0 1
lala 23 0.075 first first 15 1 618 8 5.690001 0.639997720718384 0 1 1
lala 24 0.3 first second 4 1 620 6.6 4.918501 0.339998006820679 -0.25 0 -1
lala 22 0.001171875 second second 12 1 621 6.6 5.309906 0.339998006820679 0 0 1
lala 27 0.009375 second second 9 1 622 -8 -5.361876 0.279998064041138 0 1 1
lala 28 0.0046875 first first 9 1 623 -8 -5.357189 0.139998197555542 0 1 1
lala 26 0.075 first first 5 1 624 6.6 5.103 0.979997396469116 -0.25 1 1
lala 25 0.009375 first first 13 1 625 6.6 4.774876 0.659997701644897 0 1 1
lala 29 0.0046875 first first 9 1 626 -8 -5.352501 0.679997682571411 0 1 1
lala 26 0.6 first second 22 1 628 8 4.080001 0.779997587203979 0.25 0 -1
lala 24 0.00234375 second first 6 1 630 8 3.385077 0.879997491836548 -0.25 0 -1
lala 22 0.15 first first 11 1 631 -6.6 -4.1655 1.69999694824219 0 1 1
lala 23 0.001171875 first first 12 1 632 6.6 5.308733 0.23999810218811 0 0 1
lala 28 0.15 second second 2 1 633 -6.6 -5.166938 0.379997968673706 -0.25 0 1
lala 23 0.0375 first first 21 1 634 6.6 5.6655 0.199998140335083 0.25 1 1
lala 25 0.15 first first 4 1 635 6.6 5.068501 0.539997816085815 -0.25 0 1
lala 29 0.3 first second 2 1 636 -6.6 -4.866938 0.799997568130493 -0.25 0 -1
lala 32 0.009375 second first 1 1 637 -8 -5.160314 1.69999694824219 -0.25 1 -1
lala 24 0.0375 first first 21 1 638 6.6 5.628 0.379997968673706 0.25 1 1
lala 27 0.3 first second 22 1 639 8 4.380001 0.379997968673706 0.25 0 -1
lala 24 0.00234375 second second 12 1 640 6.6 5.30639 0.659997701644897 0 0 1
lala 23 0.15 first first 11 1 641 -6.6 -4.0155 0.759997606277466 0 1 1
lala 26 0.075 second first 4 1 643 6.6 4.993501 1.07999730110168 -0.25 0 -1
lala 25 0.075 first second 21 1 644 6.6 5.553 0.219998121261597 0.25 1 -1
lala 25 0.009375 second second 7 1 645 8 5.652501 1.03999733924866 -0.25 1 1
lala 24 0.3 second first 11 1 646 -6.6 -3.7155 0.819997549057007 0 1 -1
lala 25 0.001171875 first second 6 1 647 8 3.386249 0.439997911453247 -0.25 0 -1
lala 26 0.009375 second second 23 1 649 8 5.511876 0.559997797012329 0.25 1 1
lala 25 0.0046875 second second 12 1 651 6.6 5.301702 0.699997663497925 0 0 1
lala 26 0.001171875 first first 6 1 652 8 3.387421 1.67999696731567 -0.25 0 1
lala 25 0.6 second second 8 1 653 -8 -5.805 0.499997854232788 0 0 1
lala 26 0.009375 second first 13 1 660 6.6 4.765501 1.01999735832214 0 1 -1
lala 24 0.075 second first 19 1 663 -6.6 -5.253 0.599997758865356 0.25 1 -1
lala 26 0.3 second first 8 1 664 -8 -5.505 0.679997682571411 0 0 -1
lala 26 0.0375 first second 21 1 665 6.6 5.5905 1.67999696731567 0.25 1 -1
lala 27 0.009375 first first 23 1 666 8 5.502501 0.779997587203979 0.25 1 1
lala 26 0.009375 first first 12 1 667 6.6 5.292327 0.699997663497925 0 0 1
lala 29 0.009375 second first 16 1 668 -8 -5.701874 0.479997873306274 0.25 0 -1
lala 25 0.0375 second second 19 1 669 -6.6 -5.2905 1.19999718666077 0.25 1 1
lala 30 0.0046875 first first 9 1 671 -8 -5.347814 0.479997873306274 0 1 1
lala 31 0.009375 first second 9 1 673 -8 -5.338439 0.599997758865356 0 1 -1
lala 26 0.009375 second second 7 1 677 8 5.643126 0.479997873306274 -0.25 1 1
lala 28 0.3 second first 22 1 678 8 4.680001 0.959997415542603 0.25 0 -1
lala 24 0.0375 first first 15 1 679 8 5.652501 1.33999705314636 0 1 1
lala 27 0.075 second first 5 1 680 6.6 5.028 0.579997777938843 -0.25 1 -1
lala 30 0.0046875 first second 16 1 681 -8 -5.706562 0.359997987747192 0.25 0 -1
lala 27 0.0375 first first 21 1 682 6.6 5.628 1.41999697685242 0.25 1 1
lala 27 0.01875 second second 7 1 684 8 5.624375 0.61999773979187 -0.25 1 1
lala 28 0.01875 second second 21 1 685 6.6 5.60925 0.359997987747192 0.25 1 1
lala 28 0.009375 second second 23 1 686 8 5.493126 2.35999631881714 0.25 1 1
lala 28 0.0375 first first 5 1 687 6.6 5.0655 0.919997453689575 -0.25 1 1
lala 29 0.01875 second first 21 1 690 6.6 5.5905 0.439997911453247 0.25 1 -1
lala 21 0.075 second first 17 1 691 -8 -6.064999 1.15999722480774 0.25 1 -1
lala 26 0.01875 second first 19 1 692 -6.6 -5.271749 0.819997549057007 0.25 1 -1
lala 28 0.0375 second first 7 1 693 8 5.586875 0.679997682571411 -0.25 1 -1
lala 25 0.0375 first second 15 1 695 8 5.615001 0.459997892379761 0 1 -1
lala 30 0.009375 second first 21 1 700 6.6 5.599875 1.67999696731567 0.25 1 -1
lala 27 0.15 first first 8 1 701 -8 -5.655 0.839997529983521 0 0 1
lala 29 0.01875 second first 23 1 702 8 5.474376 1.31999707221985 0.25 1 -1
lala 30 0.009375 first first 23 1 704 8 5.483751 0.23999810218811 0.25 1 1
lala 26 0.01875 second second 15 1 707 8 5.633751 1.33999705314636 0 1 1
lala 27 0.0375 first second 4 1 709 6.6 5.031001 0.259998083114624 -0.25 0 -1
lala 31 0.0046875 first first 23 1 714 8 5.479064 0.139998197555542 0.25 1 1
lala 28 0.0375 first first 4 1 715 6.6 5.068501 0.339998006820679 -0.25 0 1
lala 25 0.15 second second 11 1 716 -6.6 -3.8655 1.11999726295471 0 1 1
lala 27 0.0046875 second second 13 1 717 6.6 4.770188 1.27999711036682 0 1 1
lala 26 0.075 first first 11 1 720 -6.6 -3.7905 1.89999675750732 0 1 1
lala 31 0.0046875 second first 16 1 721 -8 -5.711249 0.559997797012329 0.25 0 -1
lala 31 0.009375 second first 21 1 723 6.6 5.60925 1.95999670028687 0.25 1 -1
lala 30 0.15 first second 2 1 724 -6.6 -5.016938 0.679997682571411 -0.25 0 -1
lala 27 0.009375 first first 19 1 725 -6.6 -5.281125 1.03999733924866 0.25 1 1
lala 27 0.075 second first 11 1 726 -6.6 -3.7155 0.61999773979187 0 1 -1
lala 28 0.0046875 first second 19 1 727 -6.6 -5.276437 1.41999697685242 0.25 1 -1
lala 32 0.009375 first first 21 1 728 6.6 5.618625 1.27999711036682 0.25 1 1
lala 28 0.0375 first second 11 1 729 -6.6 -3.753 1.11999726295471 0 1 -1
lala 29 0.00234375 first second 19 1 731 -6.6 -5.278781 1.11999726295471 0.25 1 -1
lala 29 0.3 second first 22 1 732 8 4.980001 1.87999677658081 0.25 0 -1
lala 29 0.01875 first first 4 1 736 6.6 5.049751 0.799997568130493 -0.25 0 1
lala 28 0.00234375 first second 13 1 737 6.6 4.767844 2.97999572753906 0 1 -1
lala 33 0.0046875 first first 21 1 739 6.6 5.613938 1.89999675750732 0.25 1 1
lala 29 0.001171875 second first 13 1 740 6.6 4.769016 1.0999972820282 0 1 -1
lala 29 0.01875 first second 5 1 742 6.6 5.04675 0.819997549057007 -0.25 1 -1
lala 29 0.01875 first second 7 1 747 8 5.605626 1.79999685287476 -0.25 1 -1
lala 30 0.009375 first first 5 1 749 6.6 5.056125 1.19999718666077 -0.25 1 1
lala 34 0.0046875 first second 21 1 750 6.6 5.609251 0.919997453689575 0.25 1 -1
lala 22 0.0375 first first 17 1 751 -8 -6.102499 1.19999718666077 0.25 1 1
lala 29 0.0375 second first 11 1 754 -6.6 -3.7905 0.859997510910034 0 1 -1
lala 31 0.0046875 first first 5 1 755 6.6 5.051437 0.699997663497925 -0.25 1 1
lala 32 0.0046875 second first 5 1 756 6.6 5.04675 1.5399968624115 -0.25 1 -1
lala 27 0.009375 first first 15 1 757 8 5.624376 1.65999698638916 0 1 1
lala 33 0.00234375 second first 5 1 758 6.6 5.049094 1.79999685287476 -0.25 1 -1
lala 31 0.15 second second 2 1 759 -6.6 -5.166938 1.99999666213989 -0.25 0 1
lala 30 0.0375 first second 11 1 760 -6.6 -3.828 0.259998083114624 0 1 -1
lala 32 0.075 first first 2 1 762 -6.6 -5.091938 1.21999716758728 -0.25 0 1
lala 33 0.075 second second 2 1 763 -6.6 -5.016939 1.15999722480774 -0.25 0 1
lala 34 0.00234375 first second 5 1 764 6.6 5.051437 0.959997415542603 -0.25 1 -1
lala 28 0.075 first second 8 1 765 -8 -5.58 2.01999664306641 0 0 -1
lala 29 0.0375 second second 8 1 766 -8 -5.6175 0.919997453689575 0 0 1
lala 31 0.075 second first 11 1 767 -6.6 -3.903 1.03999733924866 0 1 -1
lala 30 0.6 second first 22 1 770 8 5.580001 1.3999969959259 0.25 0 -1
lala 32 0.15 first second 11 1 771 -6.6 -4.053 0.679997682571411 0 1 -1
lala 28 0.009375 second second 15 1 772 8 5.615001 1.31999707221985 0 1 1
lala 33 0.3 first second 11 1 773 -6.6 -4.353 1.23999714851379 0 1 -1
lala 30 0.01875 second first 8 1 775 -8 -5.59875 1.07999730110168 0 0 -1
lala 31 0.009375 second second 8 1 776 -8 -5.608125 0.939997434616089 0 0 1
lala 30 0.01875 second first 4 1 777 6.6 5.031001 1.0999972820282 -0.25 0 -1
lala 34 0.6 second second 11 1 778 -6.6 -4.953 0.759997606277466 0 1 1
lala 30 0.01875 second first 7 1 779 8 5.624376 1.43999695777893 -0.25 1 -1
lala 32 0.0046875 second first 23 1 780 8 5.474376 0.979997396469116 0.25 1 -1
lala 30 0.00234375 first second 19 1 781 -6.6 -5.281125 0.279998064041138 0.25 1 -1
lala 31 0.01875 second first 7 1 782 8 5.643126 1.83999681472778 -0.25 1 -1
lala 33 0.00234375 first first 23 1 783 8 5.47672 3.11999559402466 0.25 1 1
lala 34 0.001171875 second second 23 1 784 8 5.475548 1.01999735832214 0.25 1 1
lala 23 0.01875 first first 17 1 785 -8 -6.083749 1.01999735832214 0.25 1 1
lala 24 0.01875 second second 17 1 786 -8 -6.064999 0.599997758865356 0.25 1 1
lala 35 0.3 first first 11 1 787 -6.6 -4.653 1.83999681472778 0 1 1
lala 31 0.00234375 second first 19 1 788 -6.6 -5.283468 0.779997587203979 0.25 1 -1
lala 31 1.2 second first 22 1 791 8 6.780002 1.69999694824219 0.25 0 -1
lala 34 0.075 first second 2 1 792 -6.6 -4.941939 2.45999622344971 -0.25 0 -1
lala 25 0.01875 second second 17 1 793 -8 -6.046248 0.339998006820679 0.25 1 1
lala 35 0.0375 first first 2 1 794 -6.6 -4.979439 1.17999720573425 -0.25 0 1
lala 26 0.0375 first first 17 1 796 -8 -6.008749 2.25999641418457 0.25 1 1
lala 29 0.009375 second second 15 1 797 8 5.605626 1.63999700546265 0 1 1
lala 30 0.01875 first first 15 1 799 8 5.586876 1.59999680519104 0 1 1
lala 31 0.009375 first second 4 1 800 6.6 5.040376 0.779997587203979 -0.25 0 -1
lala 27 0.075 first first 17 1 801 -8 -5.933749 1.13999724388123 0.25 1 1
lala 32 0.0375 second first 7 1 802 8 5.680626 1.95999670028687 -0.25 1 -1
lala 28 0.15 second first 17 1 803 -8 -5.783749 0.659997701644897 0.25 1 -1
lala 31 0.0375 second second 15 1 806 8 5.549376 0.39999794960022 0 1 1
lala 33 0.075 first first 7 1 807 8 5.755626 0.61999773979187 -0.25 1 1
lala 34 0.0375 second second 7 1 809 8 5.718126 0.599997758865356 -0.25 1 1
lala 29 0.075 second second 17 1 810 -8 -5.858748 0.979997396469116 0.25 1 1
lala 32 0.009375 first second 4 1 812 6.6 5.049751 0.699997663497925 -0.25 0 -1
lala 32 0.0046875 second second 8 1 813 -8 -5.603437 0.859997510910034 0 0 1
lala 35 0.0375 first first 7 1 814 8 5.680626 0.739997625350952 -0.25 1 1
lala 32 2.4 first first 22 1 815 8 9.180002 0.519997835159302 0.25 0 1
lala 33 1.2 second second 22 1 817 8 7.980002 0.839997529983521 0.25 0 1
lala 33 0.0046875 second second 8 1 818 -8 -5.59875 1.31999707221985 0 0 1
lala 30 0.0375 first first 17 1 819 -8 -5.821249 0.459997892379761 0.25 1 1
lala 34 1.2 first first 22 1 820 8 6.780003 0.299998044967651 0.25 0 1
lala 35 1.2 first second 22 1 821 8 5.580003 1.03999733924866 0.25 0 -1
lala 33 0.009375 first second 4 1 825 6.6 5.059126 0.979997396469116 -0.25 0 -1
lala 34 0.0046875 second second 8 1 826 -8 -5.594063 1.77999687194824 0 0 1
lala 31 0.0375 second first 17 1 829 -8 -5.783749 1.25999712944031 0.25 1 -1
lala 34 0.01875 second first 4 1 830 6.6 5.077876 0.919997453689575 -0.25 0 -1
lala 32 0.01875 first second 17 1 831 -8 -5.802499 2.09999656677246 0.25 1 -1
lala 32 0.075 second first 15 1 832 8 5.474376 1.79999685287476 0 1 -1
lala 33 0.01875 second first 17 1 833 -8 -5.821249 0.699997663497925 0.25 1 -1
lala 35 0.009375 first first 8 1 834 -8 -5.584688 0.699997663497925 0 0 1
lala 35 0.0375 first first 4 1 835 6.6 5.115376 0.779997587203979 -0.25 0 1
lala 34 0.01875 second second 17 1 836 -8 -5.839999 0.699997663497925 0.25 1 1
lala 35 0.009375 second second 17 1 837 -8 -5.830624 1.19999718666077 0.25 1 1
lala 33 0.0375 first second 15 1 838 8 5.511876 0.61999773979187 0 1 -1
lala 34 0.0375 second first 15 1 839 8 5.549376 0.759997606277466 0 1 -1
