subject PestNr Step_Size_OnTrial Response_Interval Pest_Interval Condition block trial velH velH_Pest Reaction_Time velH_Subject Start_Above Response_MotionEstimation
lala 1 1.2 first first 5 1 1 6.6 8.778 3.87999486923218 -0.25 1 1
lala 1 1.2 second first 20 1 2 6.6 4.356 4.17999458312988 0.25 0 -1
lala 1 1.2 second second 14 1 3 8 5.28 1.89999675750732 0 0 1
lala 1 1.2 first first 10 1 4 -6.6 -4.356 0.599997758865356 0 0 1
lala 1 1.2 first first 21 1 5 6.6 8.778 0.39999794960022 0.25 1 1
lala 1 1.2 first second 6 1 6 8 5.28 0.61999773979187 -0.25 0 -1
lala 2 1.2 first second 10 1 7 -6.6 -3.156 0.459997892379761 0 0 -1
lala 1 1.2 second first 9 1 8 -8 -10.64 0.579997777938843 0 1 -1
lala 2 1.2 second first 5 1 9 6.6 7.578 0.99999737739563 -0.25 1 -1
lala 1 1.2 second first 0 1 10 -8 -5.28 0.839997529983521 -0.25 0 -1
lala 1 1.2 second first 8 1 11 -8 -5.28 1.23999714851379 0 0 -1
lala 2 1.2 second first 14 1 12 8 4.08 4.15999460220337 0 0 -1
lala 1 1.2 second second 7 1 13 8 10.64 0.679997682571411 -0.25 1 1
lala 1 1.2 first first 3 1 14 -6.6 -8.778 0.599997758865356 -0.25 1 1
lala 2 1.2 second second 8 1 15 -8 -6.48 0.459997892379761 0 0 1
lala 3 1.2 second first 5 1 16 6.6 8.778 1.0999972820282 -0.25 1 -1
lala 2 1.2 first second 20 1 17 6.6 5.556 4.25999450683594 0.25 0 -1
lala 1 1.2 second first 12 1 18 6.6 4.356 1.33999705314636 0 0 -1
lala 1 1.2 second second 23 1 19 8 10.64 0.799997568130493 0.25 1 1
lala 3 1.2 second second 14 1 20 8 5.28 1.23999714851379 0 0 1
lala 1 1.2 second second 15 1 21 8 10.64 0.579997777938843 0 1 1
lala 2 1.2 first first 7 1 22 8 9.440001 2.79999589920044 -0.25 1 1
lala 2 1.2 first second 0 1 23 -8 -6.48 0.579997777938843 -0.25 0 -1
lala 1 1.2 first second 18 1 24 -6.6 -4.356 0.479997873306274 0.25 0 -1
lala 1 1.2 second second 13 1 25 6.6 8.778 0.39999794960022 0 1 1
lala 1 1.2 first second 4 1 26 6.6 4.356 0.599997758865356 -0.25 0 -1
lala 3 1.2 first first 0 1 27 -8 -7.68 1.81999683380127 -0.25 0 1
lala 3 1.2 second first 7 1 28 8 8.240001 0.719997644424438 -0.25 1 -1
lala 1 1.2 first first 17 1 29 -8 -10.64 0.519997835159302 0.25 1 1
lala 4 1.2 second second 0 1 30 -8 -6.48 1.33999705314636 -0.25 0 1
lala 2 1.2 first first 18 1 31 -6.6 -5.556 0.599997758865356 0.25 0 1
lala 2 1.2 second second 23 1 32 8 9.440001 0.439997911453247 0.25 1 1
lala 4 1.2 first first 5 1 33 6.6 9.978 0.539997816085815 -0.25 1 1
lala 5 1.2 first second 0 1 34 -8 -5.280001 0.559997797012329 -0.25 0 -1
lala 2 1.2 first first 3 1 35 -6.6 -7.578 0.39999794960022 -0.25 1 1
lala 3 1.2 second first 10 1 36 -6.6 -4.356 0.339998006820679 0 0 -1
lala 1 1.2 first first 11 1 37 -6.6 -8.778 0.459997892379761 0 1 1
lala 2 1.2 second second 9 1 38 -8 -11.84 0.39999794960022 0 1 1
lala 1 1.2 first first 19 1 39 -6.6 -8.778 0.359997987747192 0.25 1 1
lala 3 1.2 second second 8 1 40 -8 -5.280001 2.11999654769897 0 0 1
lala 3 1.2 first first 23 1 41 8 8.240001 0.61999773979187 0.25 1 1
lala 4 1.2 second first 14 1 42 8 4.08 0.39999794960022 0 0 -1
lala 3 1.2 second first 18 1 43 -6.6 -4.356 0.61999773979187 0.25 0 -1
lala 4 1.2 first second 23 1 44 8 7.040001 2.75999593734741 0.25 1 -1
lala 2 1.2 first first 11 1 45 -6.6 -7.578 0.39999794960022 0 1 1
lala 5 0.6 second second 14 1 46 8 4.68 0.479997873306274 0 0 1
lala 3 1.2 second second 20 1 47 6.6 6.756 0.519997835159302 0.25 0 1
lala 3 1.2 second first 3 1 48 -6.6 -6.378 11.4401268959045 -0.25 1 -1
lala 6 0.3 second first 14 1 49 8 4.38 0.419997930526733 0 0 -1
lala 2 1.2 first second 4 1 50 6.6 5.556 1.11999726295471 -0.25 0 -1
lala 2 1.2 first first 17 1 51 -8 -9.440001 1.23999714851379 0.25 1 1
lala 2 1.2 second second 19 1 52 -6.6 -7.578 0.579997777938843 0.25 1 1
lala 3 1.2 second second 11 1 53 -6.6 -6.378 0.759997606277466 0 1 1
lala 4 1.2 first second 8 1 54 -8 -4.080001 0.359997987747192 0 0 -1
lala 1 1.2 first second 16 1 55 -8 -5.28 0.699997663497925 0.25 0 -1
lala 4 1.2 second second 7 1 56 8 9.440001 0.439997911453247 -0.25 1 1
lala 1 1.2 second first 2 1 57 -6.6 -4.356 1.03999733924866 -0.25 0 -1
lala 1 1.2 first second 22 1 58 8 5.28 0.879997491836548 0.25 0 -1
lala 2 1.2 second second 15 1 59 8 9.440001 0.459997892379761 0 1 1
lala 3 1.2 second second 4 1 60 6.6 6.756 1.23999714851379 -0.25 0 1
lala 2 1.2 first first 6 1 61 8 6.48 1.45999693870544 -0.25 0 1
lala 4 1.2 second second 3 1 62 -6.6 -7.578 1.05999732017517 -0.25 1 1
lala 4 1.2 second second 10 1 63 -6.6 -5.556 0.659997701644897 0 0 1
lala 5 0.6 first second 10 1 64 -6.6 -4.956 0.459997892379761 0 0 -1
lala 2 1.2 second second 22 1 65 8 6.48 0.539997816085815 0.25 0 1
lala 4 1.2 first first 4 1 66 6.6 5.556 0.759997606277466 -0.25 0 1
lala 5 0.6 second second 23 1 67 8 7.640001 0.359997987747192 0.25 1 1
lala 4 1.2 second second 20 1 68 6.6 5.556 2.53999614715576 0.25 0 1
lala 6 0.3 second first 10 1 69 -6.6 -5.256 0.539997816085815 0 0 -1
lala 6 0.3 second second 23 1 70 8 7.340001 0.339998006820679 0.25 1 1
lala 6 0.6 first first 0 1 71 -8 -5.880001 0.359997987747192 -0.25 0 1
lala 2 1.2 first second 2 1 72 -6.6 -5.556 1.49999690055847 -0.25 0 -1
lala 1 1.2 first first 1 1 73 -8 -10.64 0.479997873306274 -0.25 1 1
lala 7 0.3 second first 10 1 74 -6.6 -5.556 0.499997854232788 0 0 -1
lala 4 1.2 second second 18 1 75 -6.6 -5.556 0.819997549057007 0.25 0 1
lala 3 1.2 first first 17 1 76 -8 -8.240001 0.279998064041138 0.25 1 1
lala 5 1.2 first first 4 1 77 6.6 4.356 0.61999773979187 -0.25 0 1
lala 2 1.2 first first 12 1 78 6.6 5.556 1.45999693870544 0 0 1
lala 7 0.3 second first 23 1 79 8 7.04 0.479997873306274 0.25 1 -1
lala 2 1.2 second second 1 1 80 -8 -9.440001 0.519997835159302 -0.25 1 1
lala 3 1.2 second second 9 1 81 -8 -10.64 0.719997644424438 0 1 1
lala 3 1.2 second second 22 1 82 8 5.280001 1.55999684333801 0.25 0 1
lala 5 0.6 first second 8 1 83 -8 -4.680001 1.03999733924866 0 0 -1
lala 3 1.2 first first 12 1 84 6.6 4.356 0.519997835159302 0 0 1
lala 2 1.2 second first 13 1 85 6.6 7.578 0.539997816085815 0 1 -1
lala 3 1.2 second second 2 1 86 -6.6 -6.756 0.359997987747192 -0.25 0 1
lala 4 1.2 second first 12 1 87 6.6 3.156 3.39999532699585 0 0 -1
lala 3 1.2 second first 19 1 88 -6.6 -6.378 2.03999662399292 0.25 1 -1
lala 4 1.2 second first 2 1 89 -6.6 -5.556 0.379997968673706 -0.25 0 -1
lala 2 1.2 first first 16 1 90 -8 -6.48 0.379997968673706 0.25 0 1
lala 4 1.2 second first 11 1 91 -6.6 -5.178 0.719997644424438 0 1 -1
lala 8 0.15 first first 23 1 92 8 7.190001 0.319998025894165 0.25 1 1
lala 5 0.6 first first 5 1 93 6.6 9.377999 0.459997892379761 -0.25 1 1
lala 3 1.2 second second 6 1 94 8 5.280001 1.35999703407288 -0.25 0 1
lala 5 0.6 first first 2 1 95 -6.6 -6.156 0.359997987747192 -0.25 0 1
lala 5 1.2 second first 20 1 96 6.6 4.356 505.479424953461 0.25 0 -1
lala 7 0.3 second first 0 1 97 -8 -5.58 1.8599967956543 -0.25 0 -1
lala 5 0.6 first first 11 1 98 -6.6 -5.778 0.299998044967651 0 1 1
lala 5 0.6 first first 3 1 99 -6.6 -6.978 0.479997873306274 -0.25 1 1
lala 7 0.15 second first 14 1 100 8 4.53 0.539997816085815 0 0 -1
lala 3 1.2 second second 13 1 101 6.6 8.778 0.559997797012329 0 1 1
lala 4 1.2 first second 19 1 102 -6.6 -7.578 0.439997911453247 0.25 1 -1
lala 6 0.3 first first 11 1 103 -6.6 -5.478 1.49999690055847 0 1 1
lala 4 1.2 second second 13 1 104 6.6 7.578 0.339998006820679 0 1 1
lala 8 0.15 first first 14 1 105 8 4.68 0.759997606277466 0 0 1
lala 4 1.2 second second 9 1 106 -8 -9.440001 0.279998064041138 0 1 1
lala 6 0.6 first second 8 1 107 -8 -5.280001 0.699997663497925 0 0 -1
lala 3 1.2 second first 1 1 108 -8 -8.240001 2.35999631881714 -0.25 1 -1
lala 9 0.075 first second 14 1 109 8 4.605 0.859997510910034 0 0 -1
lala 7 0.3 first first 11 1 110 -6.6 -5.178 0.899997472763062 0 1 1
lala 10 0.0375 first second 14 1 111 8 4.6425 1.21999716758728 0 0 -1
lala 5 2.4 first first 9 1 112 -8 -7.04 3.31999540328979 0 1 1
lala 6 0.6 second second 5 1 113 6.6 8.777999 0.339998006820679 -0.25 1 1
lala 5 1.2 first first 13 1 114 6.6 6.378 0.23999810218811 0 1 1
lala 5 1.2 first first 19 1 115 -6.6 -8.778 1.01999735832214 0.25 1 1
lala 8 0.15 first second 0 1 116 -8 -5.73 1.03999733924866 -0.25 0 -1
lala 3 1.2 second second 15 1 117 8 8.240001 0.259998083114624 0 1 1
lala 6 0.6 second second 19 1 118 -6.6 -8.177999 0.699997663497925 0.25 1 1
lala 7 0.6 first first 5 1 119 6.6 8.177999 0.499997854232788 -0.25 1 1
lala 6 0.6 second first 20 1 120 6.6 4.956 0.719997644424438 0.25 0 -1
lala 5 0.6 first first 12 1 121 6.6 3.756 0.479997873306274 0 0 1
lala 9 0.15 second second 0 1 122 -8 -5.880001 0.939997434616089 -0.25 0 1
lala 9 0.075 first first 23 1 123 8 7.115001 0.339998006820679 0.25 1 1
lala 10 0.075 second first 0 1 124 -8 -5.805001 8.14005136489868 -0.25 0 -1
lala 7 0.6 second first 8 1 125 -8 -5.880001 12.0401406288147 0 0 -1
lala 7 0.6 second second 19 1 126 -6.6 -7.578 0.379997968673706 0.25 1 1
lala 4 1.2 second first 22 1 127 8 4.080001 0.299998044967651 0.25 0 -1
lala 6 2.4 first second 13 1 128 6.6 3.978 0.339998006820679 0 1 -1
lala 7 1.2 second second 13 1 129 6.6 5.178 0.319998025894165 0 1 1
lala 8 0.3 second second 11 1 130 -6.6 -4.878 0.379997968673706 0 1 1
lala 11 0.0375 first second 14 1 131 8 4.68 0.439997911453247 0 0 -1
lala 4 1.2 first first 1 1 132 -8 -9.440001 0.259998083114624 -0.25 1 1
lala 8 1.2 second second 8 1 133 -8 -7.080001 1.43999695777893 0 0 1
lala 6 0.6 first second 3 1 134 -6.6 -6.378 0.299998044967651 -0.25 1 -1
lala 2 1.2 second second 21 1 135 6.6 7.578 0.279998064041138 0.25 1 1
lala 7 0.3 first first 3 1 136 -6.6 -6.678 0.219998121261597 -0.25 1 1
lala 4 1.2 first first 17 1 137 -8 -7.040001 0.39999794960022 0.25 1 1
lala 5 2.4 second first 17 1 138 -8 -4.640001 0.439997911453247 0.25 1 -1
lala 3 1.2 second second 21 1 139 6.6 6.378 0.659997701644897 0.25 1 1
lala 8 1.2 first first 5 1 140 6.6 6.977999 0.919997453689575 -0.25 1 1
lala 3 1.2 second first 16 1 141 -8 -5.280001 1.19999718666077 0.25 0 -1
lala 4 1.2 second second 16 1 142 -8 -6.48 0.499997854232788 0.25 0 1
lala 8 0.6 second first 13 1 143 6.6 4.578001 0.419997930526733 0 1 -1
lala 6 1.2 second first 17 1 144 -8 -5.840001 0.339998006820679 0.25 1 -1
lala 5 0.6 second first 22 1 145 8 4.680001 0.39999794960022 0.25 0 -1
lala 10 0.075 second second 23 1 146 8 7.040001 0.459997892379761 0.25 1 1
lala 8 0.6 second first 19 1 147 -6.6 -6.978 3.33999538421631 0.25 1 -1
lala 8 0.3 second first 10 1 148 -6.6 -5.856 0.679997682571411 0 0 -1
lala 9 0.6 second second 8 1 149 -8 -6.480001 0.379997968673706 0 0 1
lala 6 4.8 second first 9 1 150 -8 -2.24 0.39999794960022 0 1 -1
lala 6 0.6 second first 22 1 151 8 5.280001 0.499997854232788 0.25 0 -1
lala 7 2.4 first second 9 1 152 -8 -4.64 0.479997873306274 0 1 -1
lala 7 0.6 second first 22 1 153 8 5.880001 0.299998044967651 0.25 0 -1
lala 9 0.3 second second 19 1 154 -6.6 -7.278 0.679997682571411 0.25 1 1
lala 12 0.0375 second first 14 1 155 8 4.7175 0.299998044967651 0 0 -1
lala 7 1.2 second second 17 1 156 -8 -7.040001 112.812676906586 0.25 1 1
lala 8 2.4 first first 9 1 157 -8 -7.04 0.419997930526733 0 1 1
lala 5 0.6 first first 1 1 158 -8 -8.84 0.299998044967651 -0.25 1 1
lala 10 0.15 second first 19 1 159 -6.6 -7.128 0.259998083114624 0.25 1 -1
lala 4 1.2 second second 15 1 160 8 7.040001 0.159998178482056 0 1 1
lala 11 0.075 first second 23 1 161 8 6.965001 0.499997854232788 0.25 1 -1
lala 4 1.2 first second 21 1 162 6.6 5.178 0.39999794960022 0.25 1 -1
lala 9 0.3 first second 13 1 163 6.6 4.878001 0.459997892379761 0 1 -1
lala 6 0.3 first second 12 1 164 6.6 3.456 0.359997987747192 0 0 -1
lala 12 0.0375 second second 23 1 165 8 7.002501 0.279998064041138 0.25 1 1
lala 7 0.6 second first 20 1 166 6.6 5.556 0.459997892379761 0.25 0 -1
lala 4 1.2 first second 6 1 167 8 4.080001 0.379997968673706 -0.25 0 -1
lala 6 2.4 second second 4 1 168 6.6 1.956 1.37999701499939 -0.25 0 1
lala 5 0.6 second second 21 1 169 6.6 5.778 0.379997968673706 0.25 1 1
lala 5 0.6 first first 18 1 170 -6.6 -4.956 0.39999794960022 0.25 0 1
lala 5 2.4 first first 15 1 171 8 4.640001 2.159996509552 0 1 1
lala 5 0.6 second second 16 1 172 -8 -5.880001 19.1203017234802 0.25 0 1
lala 9 0.6 first first 10 1 173 -6.6 -6.456 0.319998025894165 0 0 1
lala 7 4.8 second first 4 1 174 6.6 -2.844 0.439997911453247 -0.25 0 -1
lala 11 0.0375 second first 0 1 175 -8 -5.842501 0.279998064041138 -0.25 0 -1
lala 9 2.4 first second 5 1 176 6.6 4.577999 8.66006326675415 -0.25 1 -1
lala 8 2.4 first second 4 1 177 6.6 -0.4440002 2.19999647140503 -0.25 0 -1
lala 5 0.6 first first 6 1 178 8 4.680001 2.47999620437622 -0.25 0 1
lala 6 0.3 first second 6 1 179 8 4.380001 0.499997854232788 -0.25 0 -1
lala 10 1.2 first first 5 1 180 6.6 5.777999 0.559997797012329 -0.25 1 1
lala 8 1.2 second first 22 1 181 8 7.080001 0.159998178482056 0.25 0 -1
lala 7 0.15 first second 12 1 182 6.6 3.606 0.859997510910034 0 0 -1
lala 9 0.6 first second 11 1 183 -6.6 -4.278 1.11999726295471 0 1 -1
lala 6 4.8 second first 15 1 184 8 -0.1599994 0.279998064041138 0 1 -1
lala 8 0.15 second second 3 1 185 -6.6 -6.528 1.21999716758728 -0.25 1 1
lala 10 0.3 second second 10 1 186 -6.6 -6.156 2.05999660491943 0 0 1
lala 13 0.075 second second 14 1 187 8 4.7925 0.599997758865356 0 0 1
lala 11 0.6 second second 5 1 188 6.6 5.177999 0.939997434616089 -0.25 1 1
lala 9 0.15 first first 3 1 189 -6.6 -6.378 0.359997987747192 -0.25 1 1
lala 7 0.15 first first 6 1 190 8 4.530001 1.3999969959259 -0.25 0 1
lala 10 0.6 first first 8 1 191 -8 -5.880001 0.839997529983521 0 0 1
lala 7 2.4 first second 15 1 192 8 2.240001 0.759997606277466 0 1 -1
lala 10 0.3 first second 11 1 193 -6.6 -4.578 5.43999338150024 0 1 -1
lala 8 0.6 second second 20 1 194 6.6 6.156 0.359997987747192 0.25 0 1
lala 6 0.6 first first 16 1 195 -8 -5.280001 27.6604971885681 0.25 0 1
lala 8 0.075 second first 6 1 196 8 4.455001 1.17999720573425 -0.25 0 -1
lala 8 2.4 second first 15 1 197 8 4.640001 0.61999773979187 0 1 -1
lala 9 2.4 first second 4 1 198 6.6 1.956 0.319998025894165 -0.25 0 -1
lala 7 0.6 second second 16 1 199 -8 -4.680001 0.559997797012329 0.25 0 1
lala 6 0.3 second second 2 1 200 -6.6 -5.855999 0.659997701644897 -0.25 0 1
lala 11 0.3 second second 10 1 201 -6.6 -5.856 0.379997968673706 0 0 1
lala 11 0.6 first first 8 1 202 -8 -5.280001 0.819997549057007 0 0 1
lala 9 2.4 first first 15 1 203 8 7.040001 0.499997854232788 0 1 1
lala 12 1.2 first second 8 1 204 -8 -4.080001 7.02002573013306 0 0 -1
lala 9 0.0375 first second 6 1 205 8 4.492501 1.89999675750732 -0.25 0 -1
lala 13 0.01875 second second 23 1 206 8 6.983751 0.359997987747192 0.25 1 1
lala 9 1.2 second second 9 1 207 -8 -5.84 1.65999698638916 0 1 1
lala 12 0.0375 second second 0 1 208 -8 -5.880001 0.479997873306274 -0.25 0 1
lala 11 0.3 first second 11 1 209 -6.6 -4.878 0.699997663497925 0 1 -1
lala 10 1.2 first second 9 1 210 -8 -4.64 5.25999355316162 0 1 -1
lala 11 0.075 second second 19 1 211 -6.6 -7.203 0.359997987747192 0.25 1 1
lala 8 0.6 first first 17 1 212 -8 -6.440001 0.279998064041138 0.25 1 1
lala 10 0.0375 second first 6 1 213 8 4.530001 0.279998064041138 -0.25 0 -1
lala 11 0.0375 second first 6 1 214 8 4.567501 0.559997797012329 -0.25 0 -1
lala 5 0.6 second second 7 1 215 8 8.84 0.659997701644897 -0.25 1 1
lala 6 0.6 first first 1 1 216 -8 -8.24 0.439997911453247 -0.25 1 1
lala 10 2.4 first second 4 1 217 6.6 4.356 0.359997987747192 -0.25 0 -1
lala 7 0.6 second second 1 1 218 -8 -7.64 0.379997968673706 -0.25 1 1
lala 8 1.2 second first 16 1 219 -8 -3.480001 0.719997644424438 0.25 0 -1
lala 12 0.6 first first 5 1 220 6.6 4.577999 0.339998006820679 -0.25 1 1
lala 8 0.15 second first 12 1 221 6.6 3.756 1.47999691963196 0 0 -1
lala 12 0.3 first first 11 1 222 -6.6 -5.178 0.299998044967651 0 1 1
lala 8 1.2 second first 1 1 223 -8 -6.44 0.459997892379761 -0.25 1 -1
lala 9 0.3 first second 20 1 224 6.6 5.855999 0.319998025894165 0.25 0 -1
lala 6 0.6 first first 7 1 225 8 8.24 0.499997854232788 -0.25 1 1
lala 9 0.6 first first 1 1 226 -8 -7.039999 0.519997835159302 -0.25 1 1
lala 12 0.3 first first 10 1 227 -6.6 -5.556 0.339998006820679 0 0 1
lala 9 2.4 second second 22 1 228 8 9.480001 0.479997873306274 0.25 0 1
lala 7 0.3 first first 2 1 229 -6.6 -5.555999 0.379997968673706 -0.25 0 1
lala 13 0.6 second first 5 1 230 6.6 3.977999 0.299998044967651 -0.25 1 -1
lala 10 0.3 first first 1 1 231 -8 -6.739999 0.479997873306274 -0.25 1 1
lala 13 0.6 first second 8 1 232 -8 -4.680001 0.539997816085815 0 0 -1
lala 13 0.15 second second 11 1 233 -6.6 -5.028 1.3999969959259 0 1 1
lala 6 0.6 first second 18 1 234 -6.6 -4.356 0.23999810218811 0.25 0 -1
lala 9 0.6 second first 16 1 235 -8 -4.080001 0.139998197555542 0.25 0 -1
lala 11 4.8 first first 4 1 236 6.6 9.156 0.299998044967651 -0.25 0 1
lala 11 0.6 second first 9 1 237 -8 -5.24 0.279998064041138 0 1 -1
lala 8 0.3 first second 2 1 238 -6.6 -5.255999 0.339998006820679 -0.25 0 -1
lala 12 0.6 second second 9 1 239 -8 -5.84 0.319998025894165 0 1 1
lala 13 0.01875 first second 0 1 240 -8 -5.86125 0.339998006820679 -0.25 0 -1
lala 14 0.6 second first 8 1 241 -8 -5.280001 0.319998025894165 0 0 -1
lala 10 1.2 second second 22 1 242 8 8.280002 0.359997987747192 0.25 0 1
lala 10 1.2 first second 15 1 243 8 5.840001 0.339998006820679 0 1 -1
lala 10 0.15 second second 20 1 244 6.6 6.006 0.319998025894165 0.25 0 1
lala 10 0.3 first first 13 1 245 6.6 5.178001 3.59999513626099 0 1 1
lala 14 0.15 first first 11 1 246 -6.6 -4.878 0.61999773979187 0 1 1
lala 14 0.01875 second second 23 1 247 8 6.965001 0.199998140335083 0.25 1 1
lala 10 0.15 first first 3 1 248 -6.6 -6.228 0.39999794960022 -0.25 1 1
lala 12 0.0375 second second 19 1 249 -6.6 -7.1655 0.23999810218811 0.25 1 1
lala 10 0.6 second first 16 1 250 -8 -4.680001 0.299998044967651 0.25 0 -1
lala 9 0.15 second first 12 1 251 6.6 3.906 0.279998064041138 0 0 -1
lala 12 2.4 first second 4 1 252 6.6 6.756 0.479997873306274 -0.25 0 -1
lala 11 0.3 second second 3 1 253 -6.6 -5.928 0.299998044967651 -0.25 1 1
lala 11 0.6 first first 15 1 254 8 6.440001 0.419997930526733 0 1 1
lala 13 0.3 second first 9 1 255 -8 -5.54 0.279998064041138 0 1 -1
lala 13 1.2 second second 4 1 256 6.6 7.956 0.459997892379761 -0.25 0 1
lala 14 0.3 first first 5 1 257 6.6 4.277999 0.459997892379761 -0.25 1 1
lala 9 0.15 second second 2 1 258 -6.6 -5.405999 0.339998006820679 -0.25 0 1
lala 14 0.6 first first 4 1 259 6.6 7.356 0.179998159408569 -0.25 0 1
lala 11 1.2 second first 22 1 260 8 7.080002 0.319998025894165 0.25 0 -1
lala 13 0.0375 first first 19 1 261 -6.6 -7.128 0.39999794960022 0.25 1 1
lala 12 0.075 second first 6 1 262 8 4.6425 0.219998121261597 -0.25 0 -1
lala 14 0.009375 first second 0 1 263 -8 -5.870625 0.39999794960022 -0.25 0 -1
lala 7 0.6 second second 7 1 264 8 7.64 0.319998025894165 -0.25 1 1
lala 11 0.3 second second 1 1 265 -8 -6.439999 2.31999635696411 -0.25 1 1
lala 7 0.3 first second 18 1 266 -6.6 -4.656 0.359997987747192 0.25 0 -1
lala 11 0.075 second second 20 1 267 6.6 5.931 0.339998006820679 0.25 0 1
lala 13 0.6 first first 10 1 268 -6.6 -4.956 0.299998044967651 0 0 1
lala 15 0.6 second first 4 1 269 6.6 6.756001 2.83999586105347 -0.25 0 -1
lala 12 0.075 first second 20 1 270 6.6 5.856 7.96004724502563 0.25 0 -1
lala 8 1.2 second second 7 1 271 8 6.44 1.87999677658081 -0.25 1 1
lala 9 2.4 first first 7 1 272 8 4.039999 0.339998006820679 -0.25 1 1
lala 13 0.15 second second 6 1 273 8 4.7925 0.839997529983521 -0.25 0 1
lala 16 0.3 second second 4 1 274 6.6 7.056001 0.499997854232788 -0.25 0 1
lala 9 0.6 second first 17 1 275 -8 -5.840001 0.579997777938843 0.25 1 -1
lala 17 0.15 first first 4 1 276 6.6 6.906001 0.219998121261597 -0.25 0 1
lala 15 0.01875 first first 23 1 277 8 6.94625 0.339998006820679 0.25 1 1
lala 11 0.15 second first 13 1 278 6.6 5.028001 0.39999794960022 0 1 -1
lala 10 0.3 second second 17 1 279 -8 -6.140001 0.259998083114624 0.25 1 1
lala 14 0.0375 second first 19 1 280 -6.6 -7.0905 0.439997911453247 0.25 1 -1
lala 15 0.15 first first 11 1 281 -6.6 -4.728 0.559997797012329 0 1 1
lala 12 0.6 second second 3 1 282 -6.6 -5.328 0.479997873306274 -0.25 1 1
lala 10 0.3 first second 12 1 283 6.6 4.206 0.459997892379761 0 0 -1
lala 11 0.15 first second 17 1 284 -8 -5.990001 0.539997816085815 0.25 1 -1
lala 8 0.3 first second 18 1 285 -6.6 -4.956 0.299998044967651 0.25 0 -1
lala 16 0.3 first first 11 1 286 -6.6 -4.428 0.599997758865356 0 1 1
lala 12 0.075 second first 13 1 287 6.6 5.103001 0.199998140335083 0 1 -1
lala 13 1.2 first first 3 1 288 -6.6 -4.128 7.12002801895142 -0.25 1 1
lala 12 0.075 second first 17 1 289 -8 -6.065001 0.419997930526733 0.25 1 -1
lala 12 0.6 first first 22 1 290 8 7.680002 0.279998064041138 0.25 0 1
lala 11 0.6 first second 12 1 291 6.6 4.806 0.719997644424438 0 0 -1
lala 6 0.3 second second 21 1 292 6.6 5.478 0.379997968673706 0.25 1 1
lala 17 0.6 second first 11 1 293 -6.6 -3.828 6.84002161026001 0 1 -1
lala 13 0.075 second second 13 1 294 6.6 5.178 0.279998064041138 0 1 1
lala 10 0.075 first second 2 1 295 -6.6 -5.330999 0.23999810218811 -0.25 0 -1
lala 14 0.0375 first first 14 1 296 8 4.755 0.439997911453247 0 0 1
lala 14 0.075 second first 6 1 297 8 4.717501 0.179998159408569 -0.25 0 -1
lala 14 0.15 first first 9 1 298 -8 -5.69 0.419997930526733 0 1 1
lala 12 1.2 second second 12 1 299 6.6 6.006001 0.279998064041138 0 0 1
lala 13 0.075 first second 17 1 300 -8 -6.140001 0.259998083114624 0.25 1 -1
lala 18 0.15 second second 4 1 301 6.6 6.756001 0.379997968673706 -0.25 0 1
lala 16 0.0375 first second 23 1 302 8 6.908751 0.479997873306274 0.25 1 -1
lala 17 0.01875 second first 23 1 303 8 6.927501 1.05999732017517 0.25 1 -1
lala 7 0.3 second second 21 1 304 6.6 5.178 0.299998044967651 0.25 1 1
lala 12 0.3 second first 1 1 305 -8 -6.139999 0.739997625350952 -0.25 1 -1
lala 14 0.075 second second 17 1 306 -8 -6.215001 0.339998006820679 0.25 1 1
lala 18 0.01875 second second 23 1 307 8 6.946251 0.419997930526733 0.25 1 1
lala 8 0.3 first second 21 1 308 6.6 4.878 0.379997968673706 0.25 1 -1
lala 14 2.4 first second 3 1 309 -6.6 -1.728 0.339998006820679 -0.25 1 -1
lala 15 0.15 second first 5 1 310 6.6 4.127999 0.119998216629028 -0.25 1 -1
lala 11 0.0375 first first 2 1 311 -6.6 -5.368499 0.259998083114624 -0.25 0 1
lala 13 0.6 second second 12 1 312 6.6 5.406001 0.319998025894165 0 0 1
lala 15 1.2 second first 3 1 313 -6.6 -2.928 0.259998083114624 -0.25 1 -1
lala 15 0.01875 second first 19 1 314 -6.6 -7.10925 0.259998083114624 0.25 1 -1
lala 12 0.3 first second 15 1 315 8 6.140001 0.459997892379761 0 1 -1
lala 13 0.15 second first 15 1 316 8 6.290001 0.439997911453247 0 1 -1
lala 10 4.8 second first 7 1 317 8 -0.7600007 0.379997968673706 -0.25 1 -1
lala 13 0.3 second second 22 1 318 8 7.380002 0.559997797012329 0.25 0 1
lala 14 0.0375 second second 13 1 319 6.6 5.140501 0.439997911453247 0 1 1
lala 14 0.15 first first 15 1 320 8 6.440001 0.279998064041138 0 1 1
lala 18 0.3 first second 11 1 321 -6.6 -4.128 0.339998006820679 0 1 -1
lala 15 0.0375 first second 13 1 322 6.6 5.103001 0.679997682571411 0 1 -1
lala 15 0.0375 first second 6 1 323 8 4.755001 0.859997510910034 -0.25 0 -1
lala 16 0.075 first second 5 1 324 6.6 4.202999 1.21999716758728 -0.25 1 -1
lala 14 0.6 first first 12 1 325 6.6 4.806001 0.379997968673706 0 0 1
lala 12 0.01875 second second 2 1 326 -6.6 -5.349749 0.259998083114624 -0.25 0 1
lala 15 0.6 second second 8 1 327 -8 -5.880001 0.259998083114624 0 0 1
lala 15 0.6 first first 12 1 328 6.6 4.206001 0.319998025894165 0 0 1
lala 13 0.01875 first first 2 1 329 -6.6 -5.330999 0.479997873306274 -0.25 0 1
lala 16 0.01875 second second 19 1 330 -6.6 -7.128 0.319998025894165 0.25 1 1
lala 11 2.4 first second 7 1 331 8 1.639999 0.39999794960022 -0.25 1 -1
lala 16 0.0375 first first 6 1 332 8 4.7925 0.339998006820679 -0.25 0 1
lala 15 0.0375 first second 17 1 333 -8 -6.177501 0.39999794960022 0.25 1 -1
lala 14 1.2 first second 10 1 334 -6.6 -3.756 0.299998044967651 0 0 -1
lala 9 0.3 second second 18 1 335 -6.6 -5.256001 0.559997797012329 0.25 0 1
lala 16 0.3 first first 8 1 336 -8 -5.58 0.579997777938843 0 0 1
lala 13 0.0375 second second 20 1 337 6.6 5.8935 0.299998044967651 0.25 0 1
lala 16 0.01875 first first 17 1 338 -8 -6.196251 0.279998064041138 0.25 1 1
lala 16 1.2 first second 12 1 339 6.6 3.006001 0.259998083114624 0 0 -1
lala 17 0.6 second first 12 1 340 6.6 3.606001 0.459997892379761 0 0 -1
lala 13 0.15 first first 1 1 341 -8 -6.289999 0.279998064041138 -0.25 1 1
lala 15 0.0375 first first 14 1 342 8 4.7175 0.39999794960022 0 0 1
lala 10 0.15 first second 18 1 343 -6.6 -5.106 0.299998044967651 0.25 0 -1
lala 11 0.075 second second 18 1 344 -6.6 -5.181 0.259998083114624 0.25 0 1
lala 17 0.009375 second second 19 1 345 -6.6 -7.118625 0.259998083114624 0.25 1 1
lala 14 0.01875 first first 20 1 346 6.6 5.87475 0.279998064041138 0.25 0 1
lala 16 1.2 first second 3 1 347 -6.6 -4.128 0.279998064041138 -0.25 1 -1
lala 14 0.075 second second 1 1 348 -8 -6.214999 0.23999810218811 -0.25 1 1
lala 15 0.075 first first 9 1 349 -8 -5.615 0.319998025894165 0 1 1
lala 19 0.009375 second second 23 1 350 8 6.936876 0.319998025894165 0.25 1 1
lala 15 0.6 first second 10 1 351 -6.6 -4.356 0.359997987747192 0 0 -1
lala 18 0.009375 second second 19 1 352 -6.6 -7.10925 0.279998064041138 0.25 1 1
lala 17 1.2 second second 3 1 353 -6.6 -5.328 0.319998025894165 -0.25 1 1
lala 18 0.6 first second 3 1 354 -6.6 -4.728 0.419997930526733 -0.25 1 -1
lala 19 0.009375 first first 19 1 355 -6.6 -7.099875 0.179998159408569 0.25 1 1
lala 16 0.01875 second first 13 1 356 6.6 5.121751 0.259998083114624 0 1 -1
lala 15 0.075 first second 15 1 357 8 6.365001 0.479997873306274 0 1 -1
lala 16 0.0375 first first 15 1 358 8 6.402501 0.479997873306274 0 1 1
lala 14 0.01875 first first 2 1 359 -6.6 -5.312249 1.05999732017517 -0.25 0 1
lala 16 0.075 first first 9 1 360 -8 -5.54 0.39999794960022 0 1 1
lala 12 0.0375 first second 18 1 361 -6.6 -5.1435 0.579997777938843 0.25 0 -1
lala 20 0.01875 second second 19 1 362 -6.6 -7.081125 0.319998025894165 0.25 1 1
lala 15 0.0375 second second 2 1 363 -6.6 -5.274749 0.219998121261597 -0.25 0 1
lala 16 0.075 first second 2 1 364 -6.6 -5.199749 0.319998025894165 -0.25 0 -1
lala 13 0.01875 second second 18 1 365 -6.6 -5.162251 0.299998044967651 0.25 0 1
lala 17 0.0375 first first 2 1 366 -6.6 -5.237249 0.459997892379761 -0.25 0 1
lala 15 0.01875 second second 20 1 367 6.6 5.855999 1.41999697685242 0.25 0 1
lala 16 0.01875 second first 20 1 368 6.6 5.837249 648.252404689789 0.25 0 -1
lala 17 0.075 first first 9 1 369 -8 -5.465001 0.539997816085815 0 1 1
lala 15 0.009375 second second 0 1 370 -8 -5.880001 0.23999810218811 -0.25 0 1
lala 18 0.6 first first 12 1 371 6.6 4.206001 0.799997568130493 0 0 1
lala 20 0.009375 second second 23 1 372 8 6.927501 0.299998044967651 0.25 1 1
lala 17 0.01875 second second 6 1 373 8 4.77375 0.319998025894165 -0.25 0 1
lala 14 0.009375 second second 18 1 374 -6.6 -5.152875 0.219998121261597 0.25 0 1
lala 18 0.01875 first second 6 1 375 8 4.755 0.419997930526733 -0.25 0 -1
lala 16 0.0375 second first 14 1 376 8 4.68 0.39999794960022 0 0 -1
lala 16 0.0046875 second second 0 1 377 -8 -5.875313 1.43999695777893 -0.25 0 1
lala 14 0.3 second second 22 1 378 8 7.080001 0.319998025894165 0.25 0 1
lala 17 0.009375 first second 17 1 379 -8 -6.186876 0.219998121261597 0.25 1 -1
lala 16 0.6 first first 10 1 380 -6.6 -4.956 0.379997968673706 0 0 1
lala 21 0.0375 first first 19 1 381 -6.6 -7.043625 0.199998140335083 0.25 1 1
lala 15 0.009375 second second 18 1 382 -6.6 -5.1435 0.539997816085815 0.25 0 1
lala 15 0.3 first first 22 1 383 8 6.780001 0.179998159408569 0.25 0 1
lala 17 0.3 first second 10 1 384 -6.6 -4.656 0.319998025894165 0 0 -1
lala 17 0.01875 second first 15 1 385 8 6.383751 21.0203452110291 0 1 -1
lala 11 0.6 first first 16 1 386 -8 -5.280001 0.299998044967651 0.25 0 1
lala 15 0.075 second second 1 1 387 -8 -6.139999 0.259998083114624 -0.25 1 1
lala 17 0.01875 second second 13 1 388 6.6 5.140501 0.279998064041138 0 1 1
lala 18 0.009375 first first 15 1 389 8 6.393126 0.23999810218811 0 1 1
lala 12 0.3 first second 16 1 390 -8 -4.98 0.379997968673706 0.25 0 -1
lala 19 0.15 first first 4 1 391 6.6 6.606 0.279998064041138 -0.25 0 1
lala 19 0.0046875 second second 15 1 392 8 6.388439 0.119998216629028 0 1 1
lala 18 0.15 second second 9 1 393 -8 -5.315001 0.339998006820679 0 1 1
lala 16 0.075 second second 1 1 394 -8 -6.065 20.8603415489197 -0.25 1 1
lala 16 0.6 first first 22 1 395 8 6.180001 0.339998006820679 0.25 0 1
lala 18 0.0046875 second second 17 1 396 -8 -6.191563 136.712899684906 0.25 1 1
lala 20 0.0046875 second second 15 1 397 8 6.383751 0.61999773979187 0 1 1
lala 17 0.15 first first 1 1 398 -8 -5.914999 0.259998083114624 -0.25 1 1
lala 19 0.3 first first 11 1 399 -6.6 -4.428 2.159996509552 0 1 1
lala 17 0.009375 first second 20 1 400 6.6 5.846624 27.240487575531 0.25 0 -1
lala 19 0.3 second second 3 1 401 -6.6 -5.028 0.319998025894165 -0.25 1 1
lala 17 1.2 second first 22 1 402 8 4.980001 0.23999810218811 0.25 0 -1
lala 12 2.4 first second 7 1 403 8 4.039999 0.23999810218811 -0.25 1 -1
lala 19 0.009375 second second 6 1 404 8 4.764375 0.299998044967651 -0.25 0 1
lala 17 0.3 first first 8 1 405 -8 -5.28 0.339998006820679 0 0 1
lala 20 0.15 second second 3 1 406 -6.6 -4.878 0.499997854232788 -0.25 1 1
lala 21 0.15 second second 3 1 407 -6.6 -4.728 0.339998006820679 -0.25 1 1
lala 17 0.0046875 first first 0 1 408 -8 -5.870626 0.219998121261597 -0.25 0 1
lala 18 0.009375 first first 13 1 409 6.6 5.131126 0.719997644424438 0 1 1
lala 19 0.3 second first 9 1 410 -8 -5.015 0.279998064041138 0 1 -1
lala 20 0.15 first first 9 1 411 -8 -5.165 0.359997987747192 0 1 1
lala 9 0.15 second second 21 1 412 6.6 5.028 0.279998064041138 0.25 1 1
lala 18 0.15 first first 10 1 413 -6.6 -4.806 0.259998083114624 0 0 1
lala 19 0.075 first first 10 1 414 -6.6 -4.731 0.299998044967651 0 0 1
lala 20 0.075 first first 10 1 415 -6.6 -4.656 0.219998121261597 0 0 1
lala 18 0.3 second first 1 1 416 -8 -5.614999 0.359997987747192 -0.25 1 -1
lala 20 0.3 second second 4 1 417 6.6 6.306 0.199998140335083 -0.25 0 1
lala 21 0.075 first first 10 1 418 -6.6 -4.581 0.639997720718384 0 0 1
lala 19 0.3 first second 12 1 419 6.6 3.906001 0.559997797012329 0 0 -1
lala 20 0.15 first second 11 1 420 -6.6 -4.278 0.219998121261597 0 1 -1
lala 20 0.15 second second 12 1 421 6.6 4.056001 0.279998064041138 0 0 1
lala 17 0.01875 first second 14 1 422 8 4.69875 0.439997911453247 0 0 -1
lala 10 0.075 second first 21 1 423 6.6 4.953 0.61999773979187 0.25 1 -1
lala 18 0.3 second second 8 1 424 -8 -4.98 0.179998159408569 0 0 1
lala 22 0.075 second second 19 1 425 -6.6 -6.968625 9.08007287979126 0.25 1 1
lala 16 0.009375 second first 18 1 426 -6.6 -5.134125 0.379997968673706 0.25 0 -1
lala 17 0.0046875 first second 18 1 427 -6.6 -5.138813 0.299998044967651 0.25 0 -1
lala 19 0.6 first second 8 1 428 -8 -4.38 0.39999794960022 0 0 -1
lala 19 0.15 second first 1 1 429 -8 -5.764999 0.199998140335083 -0.25 1 -1
lala 21 0.0046875 first first 15 1 430 8 6.379064 0.199998140335083 0 1 1
lala 22 0.15 first first 3 1 431 -6.6 -4.578 0.359997987747192 -0.25 1 1
lala 20 0.15 first first 1 1 432 -8 -5.914999 0.23999810218811 -0.25 1 1
lala 20 0.3 second second 8 1 433 -8 -4.68 0.319998025894165 0 0 1
lala 21 0.075 second first 12 1 434 6.6 3.981001 0.23999810218811 0 0 -1
lala 22 0.15 first second 10 1 435 -6.6 -4.431 0.339998006820679 0 0 -1
lala 23 0.15 first first 19 1 436 -6.6 -6.818625 0.23999810218811 0.25 1 1
lala 19 0.009375 second second 13 1 437 6.6 5.121751 0.23999810218811 0 1 1
lala 18 0.01875 second second 14 1 438 8 4.7175 0.339998006820679 0 0 1
lala 11 0.0375 first first 21 1 439 6.6 4.9905 0.139998197555542 0.25 1 1
lala 19 0.00234375 first first 17 1 440 -8 -6.189219 0.319998025894165 0.25 1 1
lala 18 0.0046875 second second 18 1 441 -6.6 -5.1435 0.299998044967651 0.25 0 1
lala 21 0.075 second second 9 1 442 -8 -5.090001 0.39999794960022 0 1 1
lala 21 0.075 first second 11 1 443 -6.6 -4.353 0.339998006820679 0 1 -1
lala 13 0.15 first first 16 1 444 -8 -5.130001 0.299998044967651 0.25 0 1
lala 20 0.009375 second second 13 1 445 6.6 5.112376 0.499997854232788 0 1 1
lala 21 0.6 second first 4 1 446 6.6 5.706 0.599997758865356 -0.25 0 -1
lala 12 0.01875 first first 21 1 447 6.6 4.97175 0.279998064041138 0.25 1 1
lala 20 0.00234375 second first 17 1 448 -8 -6.186876 0.459997892379761 0.25 1 -1
lala 22 0.075 first first 11 1 449 -6.6 -4.428 0.199998140335083 0 1 1
lala 22 0.3 first first 4 1 450 6.6 6.006001 0.519997835159302 -0.25 0 1
lala 23 0.0375 first first 11 1 451 -6.6 -4.3905 0.459997892379761 0 1 1
lala 13 2.4 first first 7 1 452 8 6.44 0.579997777938843 -0.25 1 1
lala 13 0.01875 first second 21 1 453 6.6 4.953 0.599997758865356 0.25 1 -1
lala 14 0.009375 first first 21 1 454 6.6 4.962375 0.299998044967651 0.25 1 1
lala 21 0.075 second second 1 1 455 -8 -5.84 0.279998064041138 -0.25 1 1
lala 21 0.001171875 second second 17 1 456 -8 -6.188048 0.219998121261597 0.25 1 1
lala 21 0.01875 first first 13 1 457 6.6 5.093626 0.259998083114624 0 1 1
lala 21 0.15 second first 8 1 458 -8 -4.53 0.299998044967651 0 0 -1
lala 19 0.009375 second first 14 1 459 8 4.708125 0.39999794960022 0 0 -1
lala 22 0.009375 second second 15 1 460 8 6.369689 0.299998044967651 0 1 1
lala 18 0.0046875 first first 0 1 461 -8 -5.865939 0.259998083114624 -0.25 0 1
lala 14 0.075 second second 16 1 462 -8 -5.055001 0.339998006820679 0.25 0 1
lala 20 0.0046875 second second 14 1 463 8 4.712812 0.359997987747192 0 0 1
lala 23 0.3 first first 3 1 464 -6.6 -4.278 0.279998064041138 -0.25 1 1
lala 18 0.009375 first first 20 1 465 6.6 5.855999 0.159998178482056 0.25 0 1
lala 22 0.075 first first 9 1 466 -8 -5.015001 0.359997987747192 0 1 1
lala 23 0.15 second second 4 1 467 6.6 5.856 1.01999735832214 -0.25 0 1
lala 18 0.6 second second 22 1 468 8 5.580001 0.379997968673706 0.25 0 1
lala 22 0.075 second first 8 1 469 -8 -4.605 0.599997758865356 0 0 -1
lala 19 0.00234375 first second 18 1 470 -6.6 -5.141156 0.279998064041138 0.25 0 -1
lala 15 0.075 first first 16 1 471 -8 -4.980001 0.219998121261597 0.25 0 1
lala 23 0.075 second first 9 1 472 -8 -4.940001 0.119998216629028 0 1 -1
lala 22 0.075 second second 1 1 473 -8 -5.765 0.319998025894165 -0.25 1 1
lala 21 0.00234375 first second 14 1 474 8 4.710469 0.419997930526733 0 0 -1
lala 21 0.009375 first first 23 1 475 8 6.918126 0.339998006820679 0.25 1 1
lala 15 0.0046875 first first 21 1 476 6.6 4.957687 0.539997816085815 0.25 1 1
lala 19 0.0046875 first first 20 1 477 6.6 5.851312 0.819997549057007 0.25 0 1
lala 24 0.6 second first 3 1 478 -6.6 -3.678 0.139998197555542 -0.25 1 -1
lala 23 0.075 first second 10 1 479 -6.6 -4.506 0.299998044967651 0 0 -1
lala 24 0.075 first first 10 1 480 -6.6 -4.581 0.599997758865356 0 0 1
lala 22 0.0375 first second 13 1 481 6.6 5.056126 0.279998064041138 0 1 -1
lala 24 0.0375 first second 9 1 482 -8 -4.977501 0.539997816085815 0 1 -1
lala 25 0.3 second first 3 1 483 -6.6 -3.978 0.199998140335083 -0.25 1 -1
lala 24 0.0375 second first 11 1 484 -6.6 -4.353 0.259998083114624 0 1 -1
lala 14 1.2 first second 7 1 485 8 5.24 0.359997987747192 -0.25 1 -1
lala 26 0.3 first first 3 1 486 -6.6 -4.278 0.439997911453247 -0.25 1 1
lala 23 0.01875 second second 13 1 487 6.6 5.074876 0.279998064041138 0 1 1
lala 23 0.075 second second 1 1 488 -8 -5.69 0.299998044967651 -0.25 1 1
lala 23 0.01875 second second 15 1 489 8 6.350939 0.359997987747192 0 1 1
lala 22 0.001171875 second first 14 1 490 8 4.711641 0.23999810218811 0 0 -1
lala 19 0.009375 second second 0 1 491 -8 -5.856564 0.299998044967651 -0.25 0 1
lala 17 0.075 first second 5 1 492 6.6 4.277999 0.39999794960022 -0.25 1 -1
lala 18 0.075 first first 5 1 493 6.6 4.352999 0.279998064041138 -0.25 1 1
lala 24 0.009375 second second 13 1 494 6.6 5.065501 0.659997701644897 0 1 1
lala 25 0.0375 first first 10 1 495 -6.6 -4.5435 0.359997987747192 0 0 1
lala 19 0.0375 second second 5 1 496 6.6 4.315499 0.319998025894165 -0.25 1 1
lala 19 0.3 second second 22 1 497 8 5.280001 0.259998083114624 0.25 0 1
lala 27 0.15 first second 3 1 498 -6.6 -4.128 0.559997797012329 -0.25 1 -1
lala 24 0.15 first first 1 1 499 -8 -5.54 0.259998083114624 -0.25 1 1
lala 16 0.0046875 second second 21 1 500 6.6 4.953 0.459997892379761 0.25 1 1
lala 20 0.01875 second second 0 1 501 -8 -5.837813 0.23999810218811 -0.25 0 1
lala 15 0.6 first first 7 1 502 8 5.84 0.539997816085815 -0.25 1 1
lala 18 0.01875 first second 2 1 503 -6.6 -5.218499 0.339998006820679 -0.25 0 -1
lala 22 0.0375 first second 12 1 504 6.6 4.018501 0.379997968673706 0 0 -1
lala 23 0.075 first second 8 1 505 -8 -4.68 0.559997797012329 0 0 -1
lala 20 0.001171875 second second 18 1 506 -6.6 -5.142328 0.299998044967651 0.25 0 1
lala 25 0.3 second first 1 1 507 -8 -5.24 0.279998064041138 -0.25 1 -1
lala 20 0.0375 second first 5 1 508 6.6 4.277999 0.359997987747192 -0.25 1 -1
lala 26 0.0375 second second 10 1 509 -6.6 -4.506 0.61999773979187 0 0 1
lala 16 0.075 first second 16 1 510 -8 -4.905001 0.299998044967651 0.25 0 -1
lala 24 0.3 second second 19 1 511 -6.6 -6.518625 0.299998044967651 0.25 1 1
lala 25 0.009375 first second 13 1 512 6.6 5.056126 0.319998025894165 0 1 -1
lala 27 0.0375 second first 10 1 513 -6.6 -4.4685 0.39999794960022 0 0 -1
lala 20 0.0046875 second first 6 1 514 8 4.759688 0.279998064041138 -0.25 0 -1
lala 22 0.0005859375 first first 17 1 515 -8 -6.187462 0.359997987747192 0.25 1 1
lala 23 0.0375 second first 12 1 516 6.6 4.056001 0.279998064041138 0 0 -1
lala 23 0.0005859375 first second 17 1 517 -8 -6.186876 0.479997873306274 0.25 1 -1
lala 26 0.15 second first 1 1 518 -8 -5.39 0.299998044967651 -0.25 1 -1
lala 24 0.15 first second 4 1 519 6.6 5.706 0.23999810218811 -0.25 0 -1
lala 25 0.01875 first second 11 1 520 -6.6 -4.37175 0.219998121261597 0 1 -1
lala 24 0.0002929688 second second 17 1 521 -8 -6.187169 0.299998044967651 0.25 1 1
lala 28 0.01875 first second 10 1 522 -6.6 -4.48725 0.219998121261597 0 0 -1
lala 17 0.0375 second first 16 1 523 -8 -4.942501 0.299998044967651 0.25 0 -1
lala 23 0.001171875 first second 14 1 524 8 4.712813 0.419997930526733 0 0 -1
lala 21 0.00234375 second first 6 1 525 8 4.762032 0.179998159408569 -0.25 0 -1
lala 26 0.0046875 first first 13 1 526 6.6 5.060813 0.299998044967651 0 1 1
lala 25 0.0001464844 first first 17 1 527 -8 -6.187022 0.299998044967651 0.25 1 1
lala 17 0.0046875 first first 21 1 528 6.6 4.948313 0.339998006820679 0.25 1 1
lala 27 0.15 second first 1 1 529 -8 -5.54 0.119998216629028 -0.25 1 -1
lala 20 0.0046875 first second 20 1 530 6.6 5.846625 0.279998064041138 0.25 0 -1
lala 24 0.075 second first 8 1 531 -8 -4.755 0.359997987747192 0 0 -1
lala 25 0.075 first first 4 1 532 6.6 5.781 0.419997930526733 -0.25 0 1
lala 21 0.0375 first second 0 1 533 -8 -5.800313 0.359997987747192 -0.25 0 -1
lala 28 0.15 second first 1 1 534 -8 -5.69 0.259998083114624 -0.25 1 -1
lala 16 0.3 first second 7 1 535 8 5.539999 0.379997968673706 -0.25 1 -1
lala 18 0.009375 first first 21 1 536 6.6 4.938938 0.439997911453247 0.25 1 1
lala 17 0.15 second first 7 1 537 8 5.69 0.23999810218811 -0.25 1 -1
lala 19 0.009375 second first 2 1 538 -6.6 -5.227874 0.439997911453247 -0.25 0 -1
lala 18 0.15 second second 7 1 539 8 5.84 0.579997777938843 -0.25 1 1
lala 28 0.075 second first 3 1 540 -6.6 -4.203 0.479997873306274 -0.25 1 -1
lala 21 0.00234375 second second 20 1 541 6.6 5.848969 0.359997987747192 0.25 0 1
lala 25 0.6 second second 19 1 542 -6.6 -5.918625 0.279998064041138 0.25 1 1
lala 24 0.0375 second first 12 1 543 6.6 4.093501 0.319998025894165 0 0 -1
lala 26 0.01875 second second 11 1 544 -6.6 -4.390501 0.479997873306274 0 1 1
lala 22 0.01875 second second 0 1 545 -8 -5.819064 1.63999700546265 -0.25 0 1
lala 25 0.0375 first second 9 1 546 -8 -5.015001 0.299998044967651 0 1 -1
lala 29 0.075 second second 3 1 547 -6.6 -4.277999 1.27999711036682 -0.25 1 1
lala 22 0.00234375 second first 6 1 548 8 4.764375 339.530633449554 -0.25 0 -1
lala 26 0.0375 first first 9 1 549 -8 -5.052501 0.339998006820679 0 1 1
lala 22 0.001171875 first first 20 1 550 6.6 5.847796 0.379997968673706 0.25 0 1
lala 27 0.01875 second first 9 1 551 -8 -5.033751 0.219998121261597 0 1 -1
lala 19 0.075 second first 7 1 552 8 5.765 0.0999982357025146 -0.25 1 -1
lala 26 0.0375 second first 4 1 553 6.6 5.7435 0.279998064041138 -0.25 0 -1
lala 20 0.3 second second 22 1 554 8 4.980001 8.04004907608032 0.25 0 1
lala 21 0.3 second second 22 1 555 8 4.680001 0.539997816085815 0.25 0 1
lala 22 0.01875 first first 23 1 556 8 6.899375 0.179998159408569 0.25 1 1
lala 25 0.15 first second 8 1 557 -8 -4.905 4.4999942779541 0 0 -1
lala 26 1.2 first second 19 1 558 -6.6 -4.718625 0.23999810218811 0.25 1 -1
lala 24 0.0375 second second 15 1 559 8 6.313439 0.139998197555542 0 1 1
lala 21 0.0005859375 first second 18 1 560 -6.6 -5.141742 11.4401268959045 0.25 0 -1
lala 20 0.009375 second first 2 1 561 -6.6 -5.237249 0.319998025894165 -0.25 0 -1
lala 30 0.0375 first second 3 1 562 -6.6 -4.240499 5.85999917984009 -0.25 1 -1
lala 29 0.01875 first first 10 1 563 -6.6 -4.506001 0.299998044967651 0 0 1
lala 26 0.3 second second 8 1 564 -8 -5.205 0.259998083114624 0 0 1
lala 23 0.001171875 second second 20 1 565 6.6 5.846624 0.39999794960022 0.25 0 1
lala 27 0.6 first first 19 1 566 -6.6 -5.318625 0.839997529983521 0.25 1 1
lala 28 0.3 second first 19 1 567 -6.6 -5.018625 2.83999586105347 0.25 1 -1
lala 25 0.075 second first 15 1 568 8 6.238439 1.77999687194824 0 1 -1
lala 27 0.15 first first 8 1 569 -8 -5.055 1.11999726295471 0 0 1
lala 27 0.009375 second first 11 1 570 -6.6 -4.381125 6.16000604629517 0 1 -1
lala 20 0.0375 first second 7 1 571 8 5.8025 1.0999972820282 -0.25 1 -1
lala 26 0.0001464844 second first 17 1 572 -8 -6.186876 0.539997816085815 0.25 1 -1
lala 22 0.0002929688 second second 18 1 573 -6.6 -5.142035 0.339998006820679 0.25 0 1
lala 28 0.15 first first 8 1 574 -8 -4.905 1.25999712944031 0 0 1
lala 23 0.009375 second second 0 1 575 -8 -5.809689 0.279998064041138 -0.25 0 1
lala 26 0.0375 second second 15 1 576 8 6.275939 0.419997930526733 0 1 1
lala 28 0.009375 first first 9 1 577 -8 -5.043126 0.419997930526733 0 1 1
lala 24 0.009375 second first 0 1 578 -8 -5.800313 0.39999794960022 -0.25 0 -1
lala 21 0.0375 second second 7 1 579 8 5.84 0.659997701644897 -0.25 1 1
lala 23 0.0375 second second 23 1 580 8 6.861876 0.379997968673706 0.25 1 1
lala 30 0.009375 first second 10 1 582 -6.6 -4.496625 0.219998121261597 0 0 -1
lala 21 0.009375 second second 2 1 583 -6.6 -5.246624 0.23999810218811 -0.25 0 1
lala 29 0.15 first second 19 1 584 -6.6 -5.168625 0.23999810218811 0.25 1 -1
lala 29 0.15 second first 8 1 585 -8 -4.755 0.419997930526733 0 0 -1
lala 29 0.0046875 first first 9 1 586 -8 -5.038438 1.21999716758728 0 1 1
lala 23 0.00234375 first first 6 1 587 8 4.766719 1.41999697685242 -0.25 0 1
lala 30 0.075 second first 8 1 588 -8 -4.829999 0.219998121261597 0 0 -1
lala 22 0.01875 first second 7 1 589 8 5.821249 0.419997930526733 -0.25 1 -1
lala 23 0.0001464844 first second 18 1 590 -6.6 -5.141889 0.759997606277466 0.25 0 -1
lala 31 0.0046875 second second 10 1 591 -6.6 -4.501313 0.659997701644897 0 0 1
lala 25 0.0046875 second first 0 1 592 -8 -5.805001 0.119998216629028 -0.25 0 -1
lala 24 0.001171875 second first 6 1 593 8 4.765547 4.13999462127686 -0.25 0 -1
lala 24 0.075 second second 23 1 594 8 6.786876 0.259998083114624 0.25 1 1
lala 25 0.15 second second 23 1 596 8 6.636876 0.339998006820679 0.25 1 1
lala 29 0.3 first second 1 1 597 -8 -5.99 5.7799973487854 -0.25 1 -1
lala 31 0.075 second first 8 1 598 -8 -4.904999 0.519997835159302 0 0 -1
lala 18 0.0375 first second 16 1 599 -8 -4.980001 4.25999450683594 0.25 0 -1
lala 26 0.3 second second 23 1 600 8 6.336875 0.439997911453247 0.25 1 1
lala 25 0.075 first second 12 1 601 6.6 4.1685 0.279998064041138 0 0 -1
lala 32 0.00234375 second second 10 1 602 -6.6 -4.498969 0.339998006820679 0 0 1
lala 22 0.0046875 second second 2 1 603 -6.6 -5.241937 0.499997854232788 -0.25 0 1
lala 25 0.0005859375 second first 6 1 604 8 4.766133 0.259998083114624 -0.25 0 -1
lala 24 7.324219E-05 first first 18 1 605 -6.6 -5.141962 0.419997930526733 0.25 0 1
lala 24 0.001171875 first second 14 1 606 8 4.713985 0.539997816085815 0 0 -1
lala 30 0.0046875 second second 9 1 607 -8 -5.033751 0.319998025894165 0 1 1
lala 26 0.0046875 second second 0 1 608 -8 -5.809688 0.219998121261597 -0.25 0 1
lala 31 0.01875 first second 3 1 609 -6.6 -4.25925 0.439997911453247 -0.25 1 -1
lala 22 0.6 first second 22 1 610 8 4.080001 0.359997987747192 0.25 0 -1
lala 19 0.01875 second second 21 1 611 6.6 4.920187 0.319998025894165 0.25 1 1
lala 30 0.6 second second 1 1 612 -8 -6.59 0.339998006820679 -0.25 1 1
lala 32 0.075 first second 8 1 613 -8 -4.979999 0.179998159408569 0 0 -1
lala 23 0.009375 first second 7 1 614 8 5.830625 0.359997987747192 -0.25 1 -1
lala 20 0.0375 first second 21 1 615 6.6 4.882688 0.39999794960022 0.25 1 -1
lala 19 0.0375 first second 16 1 616 -8 -5.017501 0.419997930526733 0.25 0 -1
lala 24 0.009375 first second 7 1 617 8 5.84 0.859997510910034 -0.25 1 -1
lala 26 0.0005859375 first second 6 1 618 8 4.766719 0.299998044967651 -0.25 0 -1
lala 27 0.00234375 second second 0 1 619 -8 -5.807344 0.299998044967651 -0.25 0 1
lala 23 0.3 first second 22 1 620 8 4.380001 0.319998025894165 0.25 0 -1
lala 24 0.001171875 first first 20 1 622 6.6 5.845452 0.259998083114624 0.25 0 1
lala 23 0.0046875 first first 2 1 624 -6.6 -5.237249 0.319998025894165 -0.25 0 1
lala 21 0.01875 second second 5 1 625 6.6 4.296749 0.879997491836548 -0.25 1 1
lala 27 0.00234375 first second 13 1 626 6.6 5.058469 1.19999718666077 0 1 -1
lala 25 0.009375 second second 7 1 627 8 5.849375 0.219998121261597 -0.25 1 1
lala 24 0.3 first first 22 1 628 8 4.680001 0.219998121261597 0.25 0 1
lala 27 0.01875 second second 15 1 630 8 6.257189 0.299998044967651 0 1 1
lala 28 0.001171875 second second 13 1 631 6.6 5.059641 0.259998083114624 0 1 1
lala 26 0.15 second first 12 1 634 6.6 4.318501 0.439997911453247 0 0 -1
lala 32 0.01875 first first 3 1 635 -6.6 -4.278 0.419997930526733 -0.25 1 1
lala 31 0.0046875 second first 9 1 637 -8 -5.029064 0.159998178482056 0 1 -1
lala 27 0.01875 second second 4 1 639 6.6 5.76225 0.359997987747192 -0.25 0 1
lala 25 3.66211E-05 second first 18 1 641 -6.6 -5.141925 0.219998121261597 0.25 0 -1
lala 27 0.3 first first 12 1 642 6.6 4.618501 0.179998159408569 0 0 1
lala 28 0.01875 first first 15 1 643 8 6.238439 0.879997491836548 0 1 1
lala 24 0.0046875 second first 2 1 645 -6.6 -5.232562 0.279998064041138 -0.25 0 -1
lala 30 0.15 first first 19 1 646 -6.6 -5.318625 0.179998159408569 0.25 1 1
lala 31 0.3 first first 1 1 647 -8 -6.29 0.159998178482056 -0.25 1 1
lala 20 0.075 first second 16 1 649 -8 -5.092501 0.279998064041138 0.25 0 -1
lala 22 0.009375 first second 5 1 650 6.6 4.287374 0.459997892379761 -0.25 1 -1
lala 25 0.15 first first 22 1 651 8 4.530001 0.61999773979187 0.25 0 1
lala 33 0.15 second second 8 1 653 -8 -5.129999 2.83999586105347 0 0 1
lala 28 0.0046875 first first 11 1 654 -6.6 -4.385813 0.299998044967651 0 1 1
lala 32 0.3 first first 1 1 655 -8 -5.99 0.119998216629028 -0.25 1 1
lala 25 0.00234375 second second 2 1 656 -6.6 -5.234906 0.799997568130493 -0.25 0 1
lala 25 0.00234375 first first 20 1 657 6.6 5.843109 0.179998159408569 0.25 0 1
lala 32 0.00234375 second first 9 1 658 -8 -5.031407 0.179998159408569 0 1 -1
lala 33 0.3 first first 1 1 659 -8 -5.69 0.139998197555542 -0.25 1 1
lala 26 0.0046875 second second 20 1 660 6.6 5.838421 0.199998140335083 0.25 0 1
lala 29 0.01875 second second 15 1 661 8 6.219688 0.299998044967651 0 1 1
lala 29 0.00234375 second first 11 1 664 -6.6 -4.383469 0.419997930526733 0 1 -1
lala 30 0.001171875 first first 11 1 665 -6.6 -4.384641 0.219998121261597 0 1 1
lala 34 0.075 second second 8 1 666 -8 -5.054999 0.199998140335083 0 0 1
lala 30 0.0375 second first 15 1 667 8 6.182189 0.459997892379761 0 1 -1
lala 33 0.009375 second second 3 1 669 -6.6 -4.268625 1.27999711036682 -0.25 1 1
lala 23 0.0046875 first first 5 1 670 6.6 4.292061 0.699997663497925 -0.25 1 1
lala 27 0.6 first first 23 1 671 8 5.736876 0.39999794960022 0.25 1 1
lala 33 0.00234375 second first 10 1 672 -6.6 -4.496625 1.51999688148499 0 0 -1
lala 21 0.15 first second 16 1 673 -8 -5.242501 0.559997797012329 0.25 0 -1
lala 21 0.01875 second second 21 1 674 6.6 4.901438 0.159998178482056 0.25 1 1
lala 24 0.00234375 second first 5 1 675 6.6 4.289718 0.219998121261597 -0.25 1 -1
lala 28 0.15 second second 12 1 676 6.6 4.468501 0.579997777938843 0 0 1
lala 26 1.831055E-05 first first 18 1 677 -6.6 -5.141943 0.61999773979187 0.25 0 1
lala 31 0.075 first second 19 1 679 -6.6 -5.243625 0.299998044967651 0.25 1 -1
lala 31 0.01875 first first 15 1 681 8 6.200939 0.339998006820679 0 1 1
lala 26 0.001171875 first first 2 1 684 -6.6 -5.233734 0.179998159408569 -0.25 0 1
lala 28 0.009375 first second 4 1 687 6.6 5.752875 0.419997930526733 -0.25 0 -1
lala 26 0.0046875 second second 7 1 689 8 5.844687 0.339998006820679 -0.25 1 1
lala 22 0.3 second first 16 1 690 -8 -5.542501 0.339998006820679 0.25 0 -1
lala 25 0.001171875 first first 5 1 691 6.6 4.29089 0.419997930526733 -0.25 1 1
lala 34 0.001171875 first second 10 1 693 -6.6 -4.497797 0.639997720718384 0 0 -1
lala 28 1.2 second first 23 1 694 8 4.536876 0.23999810218811 0.25 1 -1
lala 23 0.6 second first 16 1 695 -8 -6.142501 0.599997758865356 0.25 0 -1
lala 32 0.0375 second second 19 1 697 -6.6 -5.281125 0.839997529983521 0.25 1 1
lala 25 0.00234375 first second 14 1 698 8 4.716329 0.339998006820679 0 0 -1
lala 24 1.2 first first 16 1 699 -8 -7.342501 0.379997968673706 0.25 0 1
lala 29 0.15 second second 12 1 700 6.6 4.318501 0.659997701644897 0 0 1
lala 29 0.6 second second 23 1 702 8 5.136876 0.319998025894165 0.25 1 1
lala 30 0.15 second first 12 1 703 6.6 4.1685 0.539997816085815 0 0 -1
lala 35 0.075 first first 8 1 704 -8 -4.98 0.159998178482056 0 0 1
lala 30 0.3 second second 23 1 705 8 4.836875 0.379997968673706 0.25 1 1
lala 34 0.009375 second second 3 1 707 -6.6 -4.25925 0.459997892379761 -0.25 1 1
lala 26 0.15 first second 22 1 708 8 4.380001 0.219998121261597 0.25 0 -1
lala 26 0.0046875 first second 14 1 710 8 4.721016 0.379997968673706 0 0 -1
lala 33 0.01875 first first 19 1 712 -6.6 -5.262375 0.279998064041138 0.25 1 1
lala 34 0.6 second second 1 1 713 -8 -5.09 0.279998064041138 -0.25 1 1
lala 26 0.0005859375 second second 5 1 714 6.6 4.290304 0.39999794960022 -0.25 1 1
lala 27 0.0046875 second second 7 1 715 8 5.84 0.499997854232788 -0.25 1 1
lala 29 0.0046875 first first 4 1 717 6.6 5.757563 0.799997568130493 -0.25 0 1
lala 31 0.0005859375 first second 11 1 719 -6.6 -4.384055 0.279998064041138 0 1 -1
lala 32 0.009375 first first 15 1 721 8 6.191564 0.539997816085815 0 1 1
lala 25 0.6 first first 16 1 722 -8 -6.742501 0.279998064041138 0.25 0 1
lala 26 0.6 first second 16 1 723 -8 -6.142501 0.279998064041138 0.25 0 -1
lala 22 0.009375 first first 21 1 726 6.6 4.892063 0.379997968673706 0.25 1 1
lala 31 0.075 first first 12 1 728 6.6 4.2435 0.419997930526733 0 0 1
lala 35 1.2 first first 1 1 730 -8 -3.89 0.279998064041138 -0.25 1 1
lala 31 0.3 second first 23 1 731 8 4.536875 0.219998121261597 0.25 1 -1
lala 35 0.009375 second second 3 1 733 -6.6 -4.249875 0.439997911453247 -0.25 1 1
lala 32 0.15 second second 23 1 734 8 4.686875 0.279998064041138 0.25 1 1
lala 30 0.00234375 first first 4 1 735 6.6 5.755219 0.419997930526733 -0.25 0 1
lala 27 0.3 second first 16 1 736 -8 -6.442501 0.419997930526733 0.25 0 -1
lala 32 0.0375 second first 12 1 737 6.6 4.206 0.299998044967651 0 0 -1
lala 27 0.075 first first 22 1 738 8 4.455001 0.299998044967651 0.25 0 1
lala 23 0.009375 first first 21 1 751 6.6 4.882688 0.299998044967651 0.25 1 1
lala 31 0.00234375 second second 4 1 753 6.6 5.752875 0.599997758865356 -0.25 0 1
lala 33 0.01875 second first 12 1 755 6.6 4.224751 0.199998140335083 0 0 -1
lala 33 0.075 second first 23 1 756 8 4.611876 0.559997797012329 0.25 1 -1
lala 34 0.0375 first first 23 1 760 8 4.649375 0.299998044967651 0.25 1 1
lala 35 0.01875 first second 23 1 761 8 4.630625 0.339998006820679 0.25 1 -1
lala 24 0.009375 first first 21 1 763 6.6 4.873312 0.23999810218811 0.25 1 1
lala 33 0.009375 second second 15 1 764 8 6.182189 0.359997987747192 0 1 1
lala 34 0.01875 first first 19 1 767 -6.6 -5.243625 0.23999810218811 0.25 1 1
lala 32 0.00234375 second first 4 1 773 6.6 5.750532 0.419997930526733 -0.25 0 -1
lala 35 0.01875 first first 19 1 777 -6.6 -5.224874 0.199998140335083 0.25 1 1
lala 34 0.01875 first first 12 1 782 6.6 4.243501 0.23999810218811 0 0 1
lala 25 0.01875 first first 21 1 785 6.6 4.854562 0.259998083114624 0.25 1 1
lala 28 0.3 second first 16 1 790 -8 -6.742501 8.30005502700806 0.25 0 -1
lala 34 0.009375 first first 15 1 794 8 6.172813 0.139998197555542 0 1 1
lala 35 0.01875 first second 15 1 796 8 6.154063 0.819997549057007 0 1 -1
lala 35 0.009375 first first 12 1 798 6.6 4.234126 0.339998006820679 0 0 1
lala 28 0.0375 first second 22 1 800 8 4.417501 0.279998064041138 0.25 0 -1
lala 29 0.01875 second first 22 1 804 8 4.436251 0.079998254776001 0.25 0 -1
lala 29 0.3 first first 16 1 810 -8 -7.042501 0.379997968673706 0.25 0 1
lala 30 0.15 second second 16 1 813 -8 -6.892501 0.259998083114624 0.25 0 1
lala 31 0.15 second second 16 1 816 -8 -6.742501 0.159998178482056 0.25 0 1
lala 32 0.15 first first 16 1 817 -8 -6.592501 0.23999810218811 0.25 0 1
lala 30 0.01875 first second 22 1 819 8 4.455001 0.319998025894165 0.25 0 -1
lala 33 0.3 second second 16 1 821 -8 -6.292501 0.199998140335083 0.25 0 1
lala 26 0.0375 second first 21 1 822 6.6 4.817062 0.339998006820679 0.25 1 -1
lala 27 0.01875 second second 21 1 825 6.6 4.835813 0.379997968673706 0.25 1 1
lala 31 0.01875 first second 22 1 826 8 4.473752 6.96002435684204 0.25 0 -1
lala 28 0.009375 second second 21 1 827 6.6 4.826437 0.599997758865356 0.25 1 1
lala 32 0.0375 second second 22 1 828 8 4.511251 0.39999794960022 0.25 0 1
lala 29 0.009375 first first 21 1 829 6.6 4.817062 0.39999794960022 0.25 1 1
lala 30 0.009375 first first 21 1 830 6.6 4.807687 0.279998064041138 0.25 1 1
lala 34 0.6 first first 16 1 831 -8 -5.692501 0.419997930526733 0.25 0 1
lala 31 0.01875 first second 21 1 832 6.6 4.788937 0.419997930526733 0.25 1 -1
lala 32 0.009375 second second 21 1 833 6.6 4.798312 0.61999773979187 0.25 1 1
lala 33 0.01875 first second 22 1 834 8 4.492501 0.559997797012329 0.25 0 -1
lala 35 1.2 first second 16 1 835 -8 -4.492501 0.419997930526733 0.25 0 -1
lala 33 0.0046875 first second 21 1 836 6.6 4.793625 0.379997968673706 0.25 1 -1
lala 34 0.009375 second first 22 1 837 8 4.501876 0.61999773979187 0.25 0 -1
lala 34 0.00234375 first first 21 1 838 6.6 4.795969 0.39999794960022 0.25 1 1
lala 35 0.009375 second second 22 1 839 8 4.511251 0.379997968673706 0.25 0 1
