subject PestNr Step_Size_OnTrial Response_Interval Pest_Interval Condition block trial velH velH_Pest Reaction_Time velH_Subject Start_Above Response_MotionEstimation
lala 1 1.2 first first 16 1 1 -8 -5.28 158.877633571625 0.25 0 1
lala 1 1.2 first first 12 1 2 6.6 4.356 3.91999483108521 0 0 1
lala 1 1.2 first first 19 1 3 -6.6 -8.778 2.65999603271484 0.25 1 1
lala 1 1.2 first second 14 1 4 8 5.28 3.21999549865723 0 0 -1
lala 1 1.2 first first 6 1 5 8 5.28 11.2601227760315 -0.25 0 1
lala 1 1.2 first second 8 1 6 -8 -5.28 1.91999673843384 0 0 -1
lala 1 1.2 first first 21 1 7 6.6 8.778 1.93999671936035 0.25 1 1
lala 1 1.2 first first 1 1 8 -8 -10.64 4.53999423980713 -0.25 1 1
lala 2 1.2 first first 6 1 9 8 4.08 1.8599967956543 -0.25 0 1
lala 1 1.2 second first 7 1 10 8 10.64 -2.40000009536743 -0.25 1 -1
lala 1 1.2 second second 17 1 11 -8 -10.64 8.68006372451782 0.25 1 1
lala 2 1.2 second first 16 1 12 -8 -4.08 1.49999690055847 0.25 0 -1
lala 1 1.2 second second 10 1 13 -6.6 -4.356 0.979997396469116 0 0 1
lala 2 1.2 first second 10 1 14 -6.6 -3.156 1.21999716758728 0 0 -1
lala 2 1.2 first first 21 1 15 6.6 7.578 1.97999668121338 0.25 1 1
lala 1 1.2 first first 23 1 16 8 10.64 1.11999726295471 0.25 1 1
lala 3 1.2 first second 16 1 17 -8 -5.28 2.91999578475952 0.25 0 -1
lala 2 1.2 first first 23 1 18 8 9.440001 1.03999733924866 0.25 1 1
lala 1 1.2 first first 2 1 19 -6.6 -4.356 1.3999969959259 -0.25 0 1
lala 3 1.2 second first 21 1 20 6.6 6.378 1.31999707221985 0.25 1 -1
lala 1 1.2 first second 18 1 21 -6.6 -4.356 1.21999716758728 0.25 0 -1
lala 1 1.2 first second 20 1 22 6.6 4.356 1.33999705314636 0.25 0 -1
lala 2 1.2 first second 20 1 23 6.6 5.556 1.37999701499939 0.25 0 -1
lala 4 1.2 first first 21 1 24 6.6 7.578 0.919997453689575 0.25 1 1
lala 2 1.2 first first 2 1 25 -6.6 -3.156 0.659997701644897 -0.25 0 1
lala 2 1.2 second second 12 1 26 6.6 3.156 1.69999694824219 0 0 1
lala 2 1.2 first second 18 1 27 -6.6 -5.556 0.839997529983521 0.25 0 -1
lala 3 1.2 first second 23 1 28 8 8.240001 0.579997777938843 0.25 1 -1
lala 1 1.2 first first 9 1 29 -8 -10.64 0.519997835159302 0 1 1
lala 3 1.2 first second 18 1 30 -6.6 -6.756 3.99999475479126 0.25 0 -1
lala 4 1.2 first second 18 1 31 -6.6 -7.955999 1.31999707221985 0.25 0 -1
lala 4 1.2 second first 23 1 32 8 9.440001 1.77999687194824 0.25 1 -1
lala 3 1.2 first first 10 1 33 -6.6 -4.356 0.879997491836548 0 0 1
lala 1 1.2 first first 4 1 34 6.6 4.356 0.979997396469116 -0.25 0 1
lala 1 1.2 second second 0 1 35 -8 -5.28 1.19999718666077 -0.25 0 1
lala 2 1.2 second first 4 1 36 6.6 3.156 -2.40000009536743 -0.25 0 -1
lala 1 1.2 first first 13 1 37 6.6 8.778 1.45999693870544 0 1 1
lala 4 1.2 first second 16 1 38 -8 -6.48 1.75999689102173 0.25 0 -1
lala 2 1.2 second second 1 1 39 -8 -9.440001 0.879997491836548 -0.25 1 1
lala 2 1.2 second second 7 1 40 8 11.84 -2.40000009536743 -0.25 1 1
lala 3 1.2 second first 2 1 41 -6.6 -1.956 0.879997491836548 -0.25 0 -1
lala 2 1.2 second second 17 1 42 -8 -9.440001 -2.40000009536743 0.25 1 1
lala 3 1.2 first first 17 1 43 -8 -8.240001 0.99999737739563 0.25 1 1
lala 2 1.2 first second 9 1 44 -8 -9.440001 0.799997568130493 0 1 -1
lala 2 1.2 first first 14 1 45 8 6.48 0.939997434616089 0 0 1
lala 2 1.2 first second 0 1 46 -8 -4.08 0.799997568130493 -0.25 0 -1
lala 2 1.2 first first 8 1 47 -8 -6.48 3.13999557495117 0 0 1
lala 3 1.2 first first 9 1 48 -8 -10.64 1.51999688148499 0 1 1
lala 3 1.2 first second 0 1 49 -8 -5.28 0.819997549057007 -0.25 0 -1
lala 4 1.2 second second 9 1 50 -8 -9.440001 -2.40000009536743 0 1 1
lala 3 1.2 first second 12 1 51 6.6 1.956 0.839997529983521 0 0 -1
lala 5 1.2 first first 23 1 52 8 10.64 0.859997510910034 0.25 1 1
lala 1 1.2 first first 22 1 53 8 5.28 0.759997606277466 0.25 0 1
lala 6 0.6 second second 23 1 54 8 10.04 -2.40000009536743 0.25 1 1
lala 1 1.2 first first 3 1 55 -6.6 -8.778 0.819997549057007 -0.25 1 1
lala 5 2.4 first second 18 1 56 -6.6 -10.356 0.859997510910034 0.25 0 -1
lala 3 1.2 first first 1 1 57 -8 -8.240001 1.17999720573425 -0.25 1 1
lala 4 1.2 first first 17 1 58 -8 -7.040001 1.19999718666077 0.25 1 1
lala 4 1.2 first first 0 1 59 -8 -6.48 0.879997491836548 -0.25 0 1
lala 3 1.2 first first 7 1 60 8 10.64 0.979997396469116 -0.25 1 1
lala 2 1.2 first first 19 1 61 -6.6 -7.578 0.919997453689575 0.25 1 1
lala 5 2.4 first second 16 1 62 -8 -8.879999 0.859997510910034 0.25 0 -1
lala 2 1.2 second first 13 1 63 6.6 7.578 -2.40000009536743 0 1 -1
lala 3 1.2 first second 19 1 64 -6.6 -6.378 1.37999701499939 0.25 1 -1
lala 5 2.4 first second 17 1 65 -8 -4.640001 0.899997472763062 0.25 1 -1
lala 6 4.8 first first 16 1 66 -8 -13.68 0.859997510910034 0.25 0 1
lala 1 1.2 first second 11 1 67 -6.6 -8.778 0.839997529983521 0 1 -1
lala 3 1.2 second first 4 1 68 6.6 4.356 -2.40000009536743 -0.25 0 -1
lala 4 1.2 second first 10 1 69 -6.6 -3.156 3.29999542236328 0 0 -1
lala 6 4.8 first first 18 1 70 -6.6 -15.156 2.05999660491943 0.25 0 1
lala 5 0.6 first second 10 1 71 -6.6 -3.756 2.57999610900879 0 0 -1
lala 7 2.4 first first 16 1 72 -8 -11.28 1.31999707221985 0.25 0 1
lala 5 1.2 first second 9 1 73 -8 -8.240001 1.19999718666077 0 1 -1
lala 8 2.4 first first 16 1 74 -8 -8.879999 1.79999685287476 0.25 0 1
lala 4 1.2 first first 7 1 75 8 9.440001 1.95999670028687 -0.25 1 1
lala 5 0.6 first second 0 1 76 -8 -5.88 1.05999732017517 -0.25 0 -1
lala 4 1.2 second first 12 1 77 6.6 3.156 1.21999716758728 0 0 -1
lala 3 1.2 first first 20 1 78 6.6 6.756 3.21999549865723 0.25 0 1
lala 5 0.6 first first 21 1 79 6.6 6.978 0.679997682571411 0.25 1 1
lala 6 0.6 first first 21 1 80 6.6 6.378 0.579997777938843 0.25 1 1
lala 3 1.2 first first 13 1 81 6.6 8.778 0.719997644424438 0 1 1
lala 2 1.2 first first 22 1 82 8 4.08 0.639997720718384 0.25 0 1
lala 3 1.2 second second 14 1 83 8 5.280001 1.31999707221985 0 0 1
lala 4 1.2 first first 1 1 84 -8 -7.040001 2.65999603271484 -0.25 1 1
lala 4 1.2 first first 20 1 85 6.6 5.556 1.03999733924866 0.25 0 1
lala 7 0.6 second second 21 1 86 6.6 5.778 1.05999732017517 0.25 1 1
lala 6 0.6 second second 10 1 87 -6.6 -4.356 -2.40000009536743 0 0 1
lala 4 1.2 first first 13 1 88 6.6 7.578 1.25999712944031 0 1 1
lala 9 2.4 first first 16 1 89 -8 -6.479999 2.25999641418457 0.25 0 1
lala 7 0.3 first first 10 1 90 -6.6 -4.056 1.3999969959259 0 0 1
lala 6 1.2 first second 17 1 91 -8 -5.840001 1.01999735832214 0.25 1 -1
lala 1 1.2 second second 5 1 92 6.6 8.778 1.21999716758728 -0.25 1 1
lala 10 4.8 first second 16 1 93 -8 -1.679999 1.03999733924866 0.25 0 -1
lala 11 2.4 first first 16 1 94 -8 -4.079999 1.01999735832214 0.25 0 1
lala 4 1.2 first first 19 1 95 -6.6 -7.578 0.799997568130493 0.25 1 1
lala 4 1.2 first first 14 1 96 8 4.080001 1.67999696731567 0 0 1
lala 3 1.2 first first 8 1 97 -8 -5.280001 1.0999972820282 0 0 1
lala 7 2.4 first first 18 1 98 -6.6 -12.756 0.599997758865356 0.25 0 1
lala 8 2.4 first first 18 1 99 -6.6 -10.356 1.07999730110168 0.25 0 1
lala 12 1.2 first second 16 1 100 -8 -2.879999 1.35999703407288 0.25 0 -1
lala 8 0.3 first first 10 1 101 -6.6 -3.756 0.61999773979187 0 0 1
lala 9 0.3 second first 10 1 102 -6.6 -3.456 -2.40000009536743 0 0 -1
lala 2 1.2 first first 3 1 103 -6.6 -7.578 0.839997529983521 -0.25 1 1
lala 5 2.4 first second 7 1 104 8 7.04 2.05999660491943 -0.25 1 -1
lala 5 0.6 second second 19 1 105 -6.6 -6.978 1.01999735832214 0.25 1 1
lala 2 1.2 second second 11 1 106 -6.6 -9.978 4.61999416351318 0 1 1
lala 13 0.6 first second 16 1 107 -8 -3.479999 0.759997606277466 0.25 0 -1
lala 7 1.2 first first 17 1 108 -8 -7.040001 1.03999733924866 0.25 1 1
lala 4 1.2 first first 4 1 109 6.6 5.556 1.31999707221985 -0.25 0 1
lala 6 0.6 first second 19 1 110 -6.6 -6.378 1.23999714851379 0.25 1 -1
lala 5 1.2 second second 20 1 111 6.6 4.356 2.25999641418457 0.25 0 1
lala 5 2.4 first second 14 1 112 8 1.680001 1.29999709129334 0 0 -1
lala 1 1.2 first second 15 1 113 8 10.64 0.599997758865356 0 1 -1
lala 6 0.6 first first 9 1 114 -8 -8.840001 1.3999969959259 0 1 1
lala 5 0.6 first second 4 1 115 6.6 4.956 1.49999690055847 -0.25 0 -1
lala 6 1.2 second second 7 1 116 8 8.240001 1.3999969959259 -0.25 1 1
lala 14 0.6 first second 16 1 117 -8 -4.079999 1.07999730110168 0.25 0 -1
lala 6 1.2 first first 14 1 118 8 2.880001 0.859997510910034 0 0 1
lala 4 1.2 second first 2 1 119 -6.6 -3.156 0.959997415542603 -0.25 0 -1
lala 5 1.2 second first 12 1 120 6.6 4.356 -2.40000009536743 0 0 -1
lala 7 0.6 second first 14 1 121 8 2.280001 -2.40000009536743 0 0 -1
lala 3 1.2 second first 6 1 122 8 2.88 1.57999682426453 -0.25 0 -1
lala 5 1.2 first first 13 1 123 6.6 6.378 1.55999684333801 0 1 1
lala 8 0.3 first second 14 1 124 8 2.580001 1.63999700546265 0 0 -1
lala 6 2.4 first second 13 1 125 6.6 3.978 0.879997491836548 0 1 -1
lala 7 0.3 first first 19 1 126 -6.6 -6.678 0.959997415542603 0.25 1 1
lala 7 0.3 first first 9 1 127 -8 -8.540001 0.679997682571411 0 1 1
lala 6 0.3 first first 0 1 128 -8 -6.18 0.479997873306274 -0.25 0 1
lala 8 0.6 first second 17 1 129 -8 -6.440001 0.899997472763062 0.25 1 -1
lala 8 0.3 second second 9 1 130 -8 -8.240001 -2.40000009536743 0 1 1
lala 6 2.4 second first 20 1 131 6.6 1.956 3.09999561309814 0.25 0 -1
lala 9 0.3 first first 9 1 132 -8 -7.940001 0.759997606277466 0 1 1
lala 10 0.15 first second 10 1 133 -6.6 -3.606 0.759997606277466 0 0 -1
lala 8 0.15 first first 19 1 134 -6.6 -6.528 1.17999720573425 0.25 1 1
lala 6 0.3 first first 4 1 135 6.6 5.256 1.25999712944031 -0.25 0 1
lala 7 0.6 first first 23 1 136 8 9.44 0.61999773979187 0.25 1 1
lala 9 2.4 first first 18 1 137 -6.6 -7.955999 0.699997663497925 0.25 0 1
lala 5 1.2 first second 2 1 138 -6.6 -4.356 1.83999681472778 -0.25 0 -1
lala 9 0.3 second second 17 1 139 -8 -6.740001 -2.40000009536743 0.25 1 1
lala 7 0.6 second second 7 1 140 8 7.640001 2.85999584197998 -0.25 1 1
lala 8 0.6 second second 23 1 141 8 8.839999 1.83999681472778 0.25 1 1
lala 9 0.3 second first 14 1 142 8 2.880001 1.13999724388123 0 0 -1
lala 10 0.15 first second 17 1 143 -8 -6.590001 1.73999691009521 0.25 1 -1
lala 6 2.4 first second 2 1 144 -6.6 -6.756 0.799997568130493 -0.25 0 -1
lala 10 0.3 second first 14 1 145 8 3.180001 -2.40000009536743 0 0 -1
lala 11 0.075 second second 17 1 146 -8 -6.665001 4.35999441146851 0.25 1 1
lala 10 4.8 first second 18 1 147 -6.6 -3.155999 1.81999683380127 0.25 0 -1
lala 7 1.2 first first 13 1 148 6.6 5.178 1.49999690055847 0 1 1
lala 12 0.0375 first first 17 1 149 -8 -6.627501 0.779997587203979 0.25 1 1
lala 2 1.2 first second 15 1 150 8 11.84 0.939997434616089 0 1 -1
lala 4 1.2 first second 6 1 151 8 4.08 0.699997663497925 -0.25 0 -1
lala 4 1.2 first first 8 1 152 -8 -4.080001 0.679997682571411 0 0 1
lala 15 0.6 first second 16 1 153 -8 -4.679999 0.739997625350952 0.25 0 -1
lala 13 0.0375 first first 17 1 154 -8 -6.590001 0.779997587203979 0.25 1 1
lala 3 1.2 first first 22 1 155 8 2.88 0.61999773979187 0.25 0 1
lala 14 0.0375 first first 17 1 156 -8 -6.552501 1.65999698638916 0.25 1 1
lala 5 1.2 first second 6 1 157 8 5.28 0.759997606277466 -0.25 0 -1
lala 6 2.4 first first 12 1 158 6.6 6.756 1.0999972820282 0 0 1
lala 11 0.6 first second 14 1 159 8 3.780001 1.47999691963196 0 0 -1
lala 7 1.2 first second 12 1 160 6.6 5.556 1.55999684333801 0 0 -1
lala 7 1.2 second first 20 1 161 6.6 3.156 0.99999737739563 0.25 0 -1
lala 8 0.6 second first 12 1 162 6.6 6.156 0.739997625350952 0 0 -1
lala 8 0.6 second first 13 1 163 6.6 4.578001 -2.40000009536743 0 1 -1
lala 2 1.2 second second 5 1 164 6.6 7.578 -2.40000009536743 -0.25 1 1
lala 9 0.15 first second 19 1 165 -6.6 -6.378 1.79999685287476 0.25 1 -1
lala 7 0.15 second second 0 1 166 -8 -6.03 0.779997587203979 -0.25 0 1
lala 8 1.2 second second 21 1 167 6.6 4.578 -2.40000009536743 0.25 1 1
lala 6 2.4 first first 6 1 168 8 7.68 1.23999714851379 -0.25 0 1
lala 3 1.2 first first 11 1 169 -6.6 -8.778 0.61999773979187 0 1 1
lala 10 0.075 first second 19 1 170 -6.6 -6.453 0.61999773979187 0.25 1 -1
lala 5 2.4 second first 1 1 171 -8 -4.640001 2.13999652862549 -0.25 1 -1
lala 15 0.075 first first 17 1 172 -8 -6.477501 1.01999735832214 0.25 1 1
lala 11 0.15 first second 10 1 173 -6.6 -3.756 1.07999730110168 0 0 -1
lala 3 1.2 first second 5 1 174 6.6 6.378 0.839997529983521 -0.25 1 -1
lala 12 0.15 first second 10 1 175 -6.6 -3.906 0.739997625350952 0 0 -1
lala 11 0.075 first second 19 1 176 -6.6 -6.528 0.99999737739563 0.25 1 -1
lala 4 1.2 first first 11 1 177 -6.6 -7.578 0.939997434616089 0 1 1
lala 16 0.15 first first 17 1 178 -8 -6.327501 0.599997758865356 0.25 1 1
lala 8 0.15 first first 0 1 179 -8 -5.88 1.93999671936035 -0.25 0 1
lala 16 1.2 first first 16 1 180 -8 -5.879999 2.23999643325806 0.25 0 1
lala 9 0.3 first second 13 1 181 6.6 4.878001 3.81999492645264 0 1 -1
lala 7 0.15 first first 4 1 182 6.6 5.106 2.95999574661255 -0.25 0 1
lala 4 1.2 first first 5 1 183 6.6 7.578 0.99999737739563 -0.25 1 1
lala 8 0.6 first second 7 1 184 8 7.040001 0.839997529983521 -0.25 1 -1
lala 10 0.3 first first 13 1 185 6.6 5.178001 1.15999722480774 0 1 1
lala 11 0.15 first first 13 1 186 6.6 5.028001 0.779997587203979 0 1 1
lala 7 4.8 first second 2 1 187 -6.6 -11.556 0.699997663497925 -0.25 0 -1
lala 12 0.15 first second 13 1 188 6.6 4.878001 4.53999423980713 0 1 -1
lala 10 0.6 first first 9 1 189 -8 -7.340001 1.59999680519104 0 1 1
lala 12 1.2 first first 14 1 190 8 4.98 0.679997682571411 0 0 1
lala 7 1.2 first first 6 1 191 8 6.48 1.47999691963196 -0.25 0 1
lala 9 0.3 first first 7 1 192 8 7.340001 1.21999716758728 -0.25 1 1
lala 8 1.2 second first 20 1 193 6.6 4.356 1.01999735832214 0.25 0 -1
lala 5 0.6 second second 5 1 194 6.6 6.978 -2.40000009536743 -0.25 1 1
lala 9 0.15 second first 0 1 195 -8 -5.73 -2.40000009536743 -0.25 0 -1
lala 13 0.3 first first 10 1 196 -6.6 -4.206 2.21999645233154 0 0 1
lala 13 0.6 first second 14 1 197 8 4.380001 0.679997682571411 0 0 -1
lala 11 1.2 first first 9 1 198 -8 -6.14 2.01999664306641 0 1 1
lala 9 2.4 first second 21 1 199 6.6 2.178 1.01999735832214 0.25 1 -1
lala 8 9.6 first first 2 1 200 -6.6 -21.156 0.819997549057007 -0.25 0 1
lala 6 0.6 first second 5 1 201 6.6 6.378 1.8599967956543 -0.25 1 -1
lala 10 0.15 first first 7 1 202 8 7.190001 13.9401831626892 -0.25 1 1
lala 9 1.2 first second 23 1 203 8 7.639999 0.719997644424438 0.25 1 -1
lala 17 0.3 first second 17 1 204 -8 -6.027501 0.99999737739563 0.25 1 -1
lala 14 0.15 first second 10 1 205 -6.6 -4.056 2.33999633789063 0 0 -1
lala 11 2.4 first second 18 1 206 -6.6 -5.555999 1.5399968624115 0.25 0 -1
lala 17 0.6 first second 16 1 207 -8 -5.279999 3.27999544143677 0.25 0 -1
lala 10 0.6 first first 23 1 208 8 8.24 2.51999616622925 0.25 1 1
lala 3 1.2 first second 15 1 209 8 13.04 0.779997587203979 0 1 -1
lala 5 2.4 second first 8 1 210 -8 -1.680001 0.779997587203979 0 0 -1
lala 12 2.4 second first 18 1 211 -6.6 -7.955999 -2.40000009536743 0.25 0 -1
lala 9 0.6 first first 12 1 212 6.6 6.756 0.899997472763062 0 0 1
lala 14 0.3 first first 14 1 213 8 4.680001 2.07999658584595 0 0 1
lala 4 1.2 second second 15 1 214 8 14.24 1.01999735832214 0 1 1
lala 3 1.2 second first 3 1 215 -6.6 -6.378 -2.40000009536743 -0.25 1 -1
lala 12 0.075 second second 19 1 216 -6.6 -6.603 1.35999703407288 0.25 1 1
lala 6 1.2 first first 1 1 217 -8 -5.840001 2.07999658584595 -0.25 1 1
lala 13 2.4 first second 18 1 218 -6.6 -10.356 1.01999735832214 0.25 0 -1
lala 10 0.075 second second 0 1 219 -8 -5.804999 2.2999963760376 -0.25 0 1
lala 11 0.15 second first 7 1 220 8 7.040001 -2.40000009536743 -0.25 1 -1
lala 5 2.4 first first 11 1 221 -6.6 -5.178 0.979997396469116 0 1 1
lala 15 0.075 first first 10 1 222 -6.6 -4.131 1.79999685287476 0 0 1
lala 6 1.2 first second 8 1 223 -8 -2.880001 1.59999680519104 0 0 -1
lala 10 0.3 first second 12 1 224 6.6 6.455999 2.53999614715576 0 0 -1
lala 15 0.15 first first 14 1 225 8 4.530001 3.59999513626099 0 0 1
lala 6 4.8 first first 11 1 226 -6.6 -0.3779998 0.739997625350952 0 1 1
lala 4 1.2 first first 3 1 227 -6.6 -7.578 1.13999724388123 -0.25 1 1
lala 5 0.6 first second 15 1 228 8 13.64 1.0999972820282 0 1 -1
lala 5 0.6 second second 3 1 229 -6.6 -6.978 -2.40000009536743 -0.25 1 1
lala 14 4.8 second second 18 1 230 -6.6 -15.156 -2.40000009536743 0.25 0 1
lala 10 1.2 second first 21 1 231 6.6 3.378 0.719997644424438 0.25 1 -1
lala 15 2.4 first first 18 1 232 -6.6 -12.756 0.499997854232788 0.25 0 1
lala 6 0.6 first second 3 1 233 -6.6 -6.378 5.87999963760376 -0.25 1 -1
lala 16 2.4 first first 18 1 234 -6.6 -10.356 0.719997644424438 0.25 0 1
lala 11 1.2 first first 21 1 235 6.6 4.578 0.959997415542603 0.25 1 1
lala 8 0.15 first second 4 1 236 6.6 4.956 1.37999701499939 -0.25 0 -1
lala 16 0.15 first first 14 1 237 8 4.380001 1.23999714851379 0 0 1
lala 11 0.15 second first 12 1 238 6.6 6.605999 -2.40000009536743 0 0 -1
lala 11 0.3 first first 23 1 239 8 7.94 0.859997510910034 0.25 1 1
lala 9 4.8 first first 2 1 240 -6.6 -16.356 0.479997873306274 -0.25 0 1
lala 9 1.2 first second 20 1 241 6.6 5.556 1.29999709129334 0.25 0 -1
lala 12 0.6 second second 21 1 242 6.6 3.978 -2.40000009536743 0.25 1 1
lala 4 1.2 first second 22 1 243 8 1.68 1.3999969959259 0.25 0 -1
lala 18 0.15 first second 17 1 244 -8 -6.177501 1.61999702453613 0.25 1 -1
lala 13 0.075 first second 13 1 245 6.6 4.953001 6.72001886367798 0 1 -1
lala 16 0.0375 second first 10 1 246 -6.6 -4.0935 0.779997587203979 0 0 -1
lala 9 0.075 first second 4 1 247 6.6 5.031 0.779997587203979 -0.25 0 -1
lala 12 2.4 first first 9 1 248 -8 -3.74 0.579997777938843 0 1 1
lala 12 0.15 second first 12 1 249 6.6 6.756 3.51999521255493 0 0 -1
lala 5 0.6 second first 22 1 250 8 2.28 -2.40000009536743 0.25 0 -1
lala 10 2.4 first first 20 1 251 6.6 7.956 1.15999722480774 0.25 0 1
lala 11 0.0375 first first 0 1 252 -8 -5.767499 1.49999690055847 -0.25 0 1
lala 12 0.3 first second 23 1 253 8 7.639999 0.779997587203979 0.25 1 -1
lala 13 4.8 first first 9 1 254 -8 1.06 0.799997568130493 0 1 1
lala 14 0.075 first first 13 1 255 6.6 5.028 2.11999654769897 0 1 1
lala 11 1.2 second second 20 1 256 6.6 6.756 0.839997529983521 0.25 0 1
lala 17 2.4 second second 18 1 257 -6.6 -7.955999 -2.40000009536743 0.25 0 1
lala 18 4.8 second first 18 1 258 -6.6 -3.155999 2.23999643325806 0.25 0 -1
lala 12 0.075 first second 7 1 259 8 7.115001 2.27999639511108 -0.25 1 -1
lala 7 0.6 first first 1 1 260 -8 -5.240001 4.41999435424805 -0.25 1 1
lala 7 0.3 first second 3 1 261 -6.6 -6.678 6.48001337051392 -0.25 1 -1
lala 13 0.6 second second 21 1 262 6.6 3.378 -2.40000009536743 0.25 1 1
lala 13 0.15 second first 23 1 263 8 7.789999 -2.40000009536743 0.25 1 -1
lala 13 0.15 second second 12 1 264 6.6 6.906 4.45999431610107 0 0 1
lala 6 0.3 first first 15 1 265 8 13.94 0.579997777938843 0 1 1
lala 14 0.15 first second 23 1 266 8 7.94 0.819997549057007 0.25 1 -1
lala 15 0.0375 second second 13 1 267 6.6 4.9905 -2.40000009536743 0 1 1
lala 8 0.3 second second 3 1 268 -6.6 -6.978001 5.71999597549438 -0.25 1 1
lala 18 0.3 first second 16 1 269 -8 -5.579999 1.19999718666077 0.25 0 -1
lala 12 0.0375 first first 0 1 270 -8 -5.73 1.51999688148499 -0.25 0 1
lala 17 0.01875 first second 10 1 271 -6.6 -4.11225 2.77999591827393 0 0 -1
lala 14 9.6 first first 9 1 272 -8 10.66 0.579997777938843 0 1 1
lala 10 4.8 first second 2 1 273 -6.6 -11.556 0.919997453689575 -0.25 0 -1
lala 7 1.2 second first 8 1 274 -8 -4.080001 1.73999691009521 0 0 -1
lala 14 0.6 second first 21 1 275 6.6 2.778 1.49999690055847 0.25 1 -1
lala 6 0.6 first second 22 1 276 8 2.88 1.17999720573425 0.25 0 -1
lala 8 1.2 first second 8 1 277 -8 -5.280001 1.25999712944031 0 0 -1
lala 13 0.075 first first 7 1 278 8 7.190001 1.21999716758728 -0.25 1 1
lala 11 2.4 first first 2 1 279 -6.6 -13.956 3.69999504089355 -0.25 0 1
lala 7 0.3 first second 5 1 280 6.6 6.678 0.799997568130493 -0.25 1 -1
lala 8 1.2 first first 6 1 281 8 5.28 2.61999607086182 -0.25 0 1
lala 15 19.2 first first 9 1 282 -8 29.86 4.17999458312988 0 1 1
lala 10 0.075 second first 4 1 283 6.6 5.105999 -2.40000009536743 -0.25 0 -1
lala 9 0.15 first first 3 1 284 -6.6 -6.828001 1.97999668121338 -0.25 1 1
lala 17 0.15 first second 14 1 285 8 4.23 1.99999666213989 0 0 -1
lala 14 0.075 first second 12 1 286 6.6 6.831 0.599997758865356 0 0 -1
lala 13 0.0375 second second 19 1 287 -6.6 -6.5655 1.57999682426453 0.25 1 1
lala 12 1.2 second first 20 1 288 6.6 5.556 1.93999671936035 0.25 0 -1
lala 18 0.01875 first first 10 1 289 -6.6 -4.131001 2.69999599456787 0 0 1
lala 13 0.6 first first 20 1 290 6.6 6.156 1.97999668121338 0.25 0 1
lala 19 0.3 first first 16 1 291 -8 -5.88 0.679997682571411 0.25 0 1
lala 8 0.6 second first 1 1 292 -8 -4.640001 0.559997797012329 -0.25 1 -1
lala 9 2.4 first first 8 1 293 -8 -7.680001 1.01999735832214 0 0 1
lala 8 0.3 first second 5 1 294 6.6 6.978001 0.639997720718384 -0.25 1 -1
lala 9 1.2 second first 6 1 295 8 4.08 -2.40000009536743 -0.25 0 -1
lala 20 0.15 first second 16 1 296 -8 -5.73 1.17999720573425 0.25 0 -1
lala 19 0.009375 first first 10 1 297 -6.6 -4.121625 1.45999693870544 0 0 1
lala 15 0.3 first second 21 1 298 6.6 3.078 2.37999629974365 0.25 1 -1
lala 10 0.6 first first 6 1 299 8 4.68 4.43999433517456 -0.25 0 1
lala 9 0.3 second second 5 1 300 6.6 7.278001 1.33999705314636 -0.25 1 1
lala 18 0.075 second first 14 1 301 8 4.305 -2.40000009536743 0 0 -1
lala 14 0.3 second second 20 1 302 6.6 5.855999 -2.40000009536743 0.25 0 1
lala 19 0.15 first first 17 1 303 -8 -6.327501 1.43999695777893 0.25 1 1
lala 7 0.6 first first 22 1 304 8 3.48 1.29999709129334 0.25 0 1
lala 19 2.4 first second 18 1 305 -6.6 -5.555999 3.11999559402466 0.25 0 -1
lala 19 0.075 first second 14 1 306 8 4.38 1.17999720573425 0 0 -1
lala 10 0.15 first second 5 1 307 6.6 7.128001 1.13999724388123 -0.25 1 -1
lala 11 0.075 second first 5 1 308 6.6 7.203001 2.89999580383301 -0.25 1 -1
lala 16 38.4 second second 9 1 309 -8 68.26 -2.40000009536743 0 1 1
lala 8 0.3 first second 22 1 310 8 3.18 1.83999681472778 0.25 0 -1
lala 9 0.3 first first 1 1 311 -8 -4.940001 1.89999675750732 -0.25 1 1
lala 15 0.3 first first 20 1 312 6.6 5.555999 1.31999707221985 0.25 0 1
lala 11 0.3 first second 6 1 313 8 4.38 0.939997434616089 -0.25 0 -1
lala 11 0.075 first second 4 1 314 6.6 5.180999 0.779997587203979 -0.25 0 -1
lala 13 0.0375 first second 0 1 315 -8 -5.6925 1.57999682426453 -0.25 0 -1
lala 12 0.15 second first 4 1 316 6.6 5.330999 2.21999645233154 -0.25 0 -1
lala 12 0.15 second first 6 1 317 8 4.53 -2.40000009536743 -0.25 0 -1
lala 20 0.075 second first 14 1 318 8 4.455 -2.40000009536743 0 0 -1
lala 12 0.075 first first 5 1 319 6.6 7.278 2.35999631881714 -0.25 1 1
lala 20 0.075 first first 17 1 320 -8 -6.252501 1.15999722480774 0.25 1 1
lala 14 0.0375 first second 7 1 321 8 7.152501 0.779997587203979 -0.25 1 -1
lala 10 0.15 first first 3 1 322 -6.6 -6.678 1.25999712944031 -0.25 1 1
lala 15 0.0375 first first 12 1 323 6.6 6.8685 2.67999601364136 0 0 1
lala 17 76.8 first first 9 1 324 -8 145.06 2.2999963760376 0 1 1
lala 16 0.3 first second 21 1 325 6.6 3.378 5.21999359130859 0.25 1 -1
lala 21 0.15 second first 14 1 326 8 4.605 -2.40000009536743 0 0 -1
lala 11 0.15 second first 3 1 327 -6.6 -6.528 -2.40000009536743 -0.25 1 -1
lala 20 2.4 first first 18 1 328 -6.6 -7.955999 2.2999963760376 0.25 0 1
lala 10 1.2 first first 8 1 329 -8 -6.48 1.11999726295471 0 0 1
lala 21 0.075 second second 16 1 330 -8 -5.804999 -2.40000009536743 0.25 0 1
lala 12 1.2 first first 2 1 331 -6.6 -12.756 1.31999707221985 -0.25 0 1
lala 20 0.009375 first second 10 1 332 -6.6 -4.11225 1.35999703407288 0 0 -1
lala 7 0.15 first first 15 1 333 8 13.79 0.939997434616089 0 1 1
lala 11 1.2 first first 8 1 334 -8 -5.280001 0.979997396469116 0 0 1
lala 12 1.2 first second 8 1 335 -8 -4.080001 0.839997529983521 0 0 -1
lala 9 0.15 first first 22 1 336 8 3.33 1.15999722480774 0.25 0 1
lala 13 0.15 first second 6 1 337 8 4.68 4.07999467849731 -0.25 0 -1
lala 8 0.15 first first 15 1 338 8 13.64 0.739997625350952 0 1 1
lala 14 0.01875 first first 0 1 339 -8 -5.71125 9.1200737953186 -0.25 0 1
lala 15 0.15 first first 23 1 340 8 8.089999 0.61999773979187 0.25 1 1
lala 7 9.6 first second 11 1 341 -6.6 9.222 0.61999773979187 0 1 -1
lala 14 0.0375 second first 19 1 342 -6.6 -6.528 1.31999707221985 0.25 1 -1
lala 14 0.15 first second 6 1 343 8 4.83 5.61999368667603 -0.25 0 -1
lala 13 0.3 first second 4 1 344 6.6 5.631 1.07999730110168 -0.25 0 -1
lala 15 0.3 first first 6 1 345 8 5.13 0.919997453689575 -0.25 0 1
lala 12 0.075 second second 3 1 346 -6.6 -6.603 4.97999382019043 -0.25 1 1
lala 21 0.0046875 first second 10 1 347 -6.6 -4.116938 0.759997606277466 0 0 -1
lala 16 0.075 first first 23 1 348 8 8.014999 0.679997682571411 0.25 1 1
lala 13 0.6 first first 8 1 349 -8 -4.680001 10.0200943946838 0 0 1
lala 21 1.2 first first 18 1 350 -6.6 -6.755999 0.99999737739563 0.25 0 1
lala 21 0.075 first first 17 1 351 -8 -6.177502 3.37999534606934 0.25 1 1
lala 13 1.2 first first 2 1 352 -6.6 -11.556 2.37999629974365 -0.25 0 1
lala 22 1.2 first first 18 1 353 -6.6 -5.555999 0.739997625350952 0.25 0 1
lala 15 0.009375 first first 0 1 354 -8 -5.701875 2.19999647140503 -0.25 0 1
lala 9 0.15 first first 15 1 355 8 13.49 0.519997835159302 0 1 1
lala 18 153.6 first second 9 1 356 -8 298.66 0.799997568130493 0 1 -1
lala 19 76.8 first first 9 1 357 -8 221.86 1.93999671936035 0 1 1
lala 14 0.3 first first 8 1 358 -8 -4.380001 0.959997415542603 0 0 1
lala 20 38.4 first first 9 1 359 -8 260.26 1.0999972820282 0 1 1
lala 22 0.3 first second 14 1 360 8 4.905 1.57999682426453 0 0 -1
lala 14 1.2 first first 2 1 361 -6.6 -10.356 8.14005136489868 -0.25 0 1
lala 17 0.3 first first 21 1 362 6.6 3.678 0.759997606277466 0.25 1 1
lala 16 0.0375 second first 13 1 363 6.6 4.953001 -2.40000009536743 0 1 -1
lala 15 0.01875 first first 19 1 364 -6.6 -6.54675 0.919997453689575 0.25 1 1
lala 10 0.075 first second 22 1 365 8 3.255 2.7399959564209 0.25 0 -1
lala 18 0.15 first second 21 1 366 6.6 3.528 5.67999505996704 0.25 1 -1
lala 22 0.0375 first second 16 1 367 -8 -5.767499 0.799997568130493 0.25 0 -1
lala 8 4.8 first first 11 1 368 -6.6 4.422 2.55999612808228 0 1 1
lala 10 0.3 first second 15 1 369 8 13.19 1.69999694824219 0 1 -1
lala 17 0.01875 first second 13 1 370 6.6 4.971751 18.8202948570251 0 1 -1
lala 19 0.075 first second 21 1 371 6.6 3.603 0.879997491836548 0.25 1 -1
lala 15 0.01875 first second 7 1 372 8 7.171251 1.11999726295471 -0.25 1 -1
lala 16 0.009375 first first 19 1 373 -6.6 -6.537375 1.13999724388123 0.25 1 1
lala 9 2.4 first second 11 1 374 -6.6 6.822 1.23999714851379 0 1 -1
lala 16 0.01875 second second 12 1 375 6.6 6.84975 -2.40000009536743 0 0 1
lala 23 0.01875 second first 16 1 376 -8 -5.78625 -2.40000009536743 0.25 0 -1
lala 11 0.15 first first 15 1 377 8 13.34 0.559997797012329 0 1 1
lala 15 2.4 first first 2 1 378 -6.6 -7.956 2.85999584197998 -0.25 0 1
lala 15 0.3 first second 8 1 379 -8 -4.08 1.15999722480774 0 0 -1
lala 18 0.01875 first second 13 1 380 6.6 4.990501 1.25999712944031 0 1 -1
lala 10 1.2 first second 11 1 381 -6.6 5.622 1.29999709129334 0 1 -1
lala 16 0.15 first first 8 1 382 -8 -4.23 1.67999696731567 0 0 1
lala 23 0.6 second second 14 1 383 8 5.505 0.919997453689575 0 0 1
lala 16 0.15 second second 6 1 384 8 4.98 5.03999376296997 -0.25 0 1
lala 16 0.009375 second first 0 1 385 -8 -5.6925 -2.40000009536743 -0.25 0 -1
lala 22 0.075 first second 17 1 386 -8 -6.102502 2.67999601364136 0.25 1 -1
lala 19 0.01875 first second 13 1 387 6.6 5.009251 1.47999691963196 0 1 -1
lala 16 0.3 second first 20 1 388 6.6 5.255999 -2.40000009536743 0.25 0 -1
lala 10 0.15 second first 1 1 389 -8 -4.790001 0.799997568130493 -0.25 1 -1
lala 16 0.01875 first first 7 1 390 8 7.190001 0.579997777938843 -0.25 1 1
lala 24 0.3 first second 14 1 391 8 5.205 1.47999691963196 0 0 -1
lala 17 0.15 first first 20 1 392 6.6 5.405999 2.91999578475952 0.25 0 1
lala 18 0.075 first second 20 1 393 6.6 5.330999 1.49999690055847 0.25 0 -1
lala 16 4.8 first second 2 1 394 -6.6 -3.156 1.49999690055847 -0.25 0 -1
lala 12 0.075 first first 15 1 395 8 13.265 0.459997892379761 0 1 1
lala 20 0.075 first second 21 1 396 6.6 3.678 1.73999691009521 0.25 1 -1
lala 17 2.4 second second 2 1 397 -6.6 -5.556 0.839997529983521 -0.25 0 1
lala 11 1.2 second first 11 1 398 -6.6 4.422 -2.40000009536743 0 1 -1
lala 20 0.0375 first first 13 1 399 6.6 5.046751 1.07999730110168 0 1 1
lala 14 0.6 first first 4 1 400 6.6 6.230999 4.09999465942383 -0.25 0 1
lala 17 0.075 first second 23 1 401 8 7.94 0.599997758865356 0.25 1 -1
lala 11 0.0375 second first 22 1 402 8 3.2925 0.819997549057007 0.25 0 -1
lala 19 0.0375 first second 20 1 403 6.6 5.368499 2.79999589920044 0.25 0 -1
lala 24 0.01875 first second 16 1 404 -8 -5.805 0.859997510910034 0.25 0 -1
lala 15 0.3 first second 4 1 405 6.6 5.930999 7.32003259658813 -0.25 0 -1
lala 17 0.15 first first 6 1 406 8 4.83 0.799997568130493 -0.25 0 1
lala 25 0.15 second first 14 1 407 8 5.355 0.679997682571411 0 0 -1
lala 18 1.2 second second 2 1 408 -6.6 -4.356 1.57999682426453 -0.25 0 1
lala 23 1.2 second first 18 1 409 -6.6 -4.355999 1.3999969959259 0.25 0 -1
lala 18 0.15 first second 6 1 410 8 4.68 3.37999534606934 -0.25 0 -1
lala 17 0.01875 first second 12 1 411 6.6 6.830999 3.13999557495117 0 0 -1
lala 17 0.0046875 second second 0 1 412 -8 -5.697187 -2.40000009536743 -0.25 0 1
lala 13 0.0375 first first 5 1 413 6.6 7.2405 2.69999599456787 -0.25 1 1
lala 13 0.075 first second 15 1 414 8 13.19 5.29999351501465 0 1 -1
lala 16 0.15 first second 4 1 415 6.6 6.080999 0.679997682571411 -0.25 0 -1
lala 26 0.15 first second 14 1 416 8 5.505 0.599997758865356 0 0 -1
lala 12 0.0375 first first 22 1 417 8 3.329999 0.759997606277466 0.25 0 1
lala 21 38.4 second second 9 1 418 -8 298.66 -2.40000009536743 0 1 1
lala 13 0.01875 second first 22 1 419 8 3.311249 0.839997529983521 0.25 0 -1
lala 12 1.2 first second 11 1 420 -6.6 3.222 0.719997644424438 0 1 -1
lala 14 0.009375 first first 22 1 421 8 3.320625 0.559997797012329 0.25 0 1
lala 13 2.4 first second 11 1 422 -6.6 0.8219998 0.99999737739563 0 1 -1
lala 20 0.0375 first second 20 1 423 6.6 5.405999 2.65999603271484 0.25 0 -1
lala 19 1.2 first second 2 1 424 -6.6 -3.156 0.679997682571411 -0.25 0 -1
lala 24 0.6 first second 18 1 425 -6.6 -4.955999 3.51999521255493 0.25 0 -1
lala 14 4.8 first second 11 1 426 -6.6 -3.978 3.69999504089355 0 1 -1
lala 21 0.075 second first 21 1 427 6.6 3.753 0.599997758865356 0.25 1 -1
lala 23 0.0375 first first 17 1 428 -8 -6.140002 0.759997606277466 0.25 1 1
lala 17 0.009375 first first 19 1 429 -6.6 -6.528 0.519997835159302 0.25 1 1
lala 17 0.15 first second 4 1 430 6.6 6.230999 3.19999551773071 -0.25 0 -1
lala 17 0.075 first first 8 1 431 -8 -4.155001 1.27999711036682 0 0 1
lala 25 0.6 second second 18 1 432 -6.6 -5.555999 4.71999406814575 0.25 0 1
lala 18 0.075 second first 8 1 433 -8 -4.080001 2.55999612808228 0 0 -1
lala 17 0.009375 first first 7 1 434 8 7.180626 1.23999714851379 -0.25 1 1
lala 18 0.009375 first first 19 1 435 -6.6 -6.518625 0.659997701644897 0.25 1 1
lala 25 0.01875 first first 16 1 436 -8 -5.82375 1.31999707221985 0.25 0 1
lala 18 0.009375 second first 12 1 437 6.6 6.840374 2.37999629974365 0 0 -1
lala 18 0.00234375 second first 0 1 438 -8 -5.694843 -2.40000009536743 -0.25 0 -1
lala 13 0.0375 first first 3 1 439 -6.6 -6.5655 3.39999532699585 -0.25 1 1
lala 11 0.075 first second 1 1 440 -8 -4.865001 1.3999969959259 -0.25 1 -1
lala 22 0.15 first second 21 1 441 6.6 3.903 4.87999391555786 0.25 1 -1
lala 23 0.3 first first 21 1 442 6.6 4.203001 0.499997854232788 0.25 1 1
lala 20 0.6 second first 2 1 443 -6.6 -3.756 2.55999612808228 -0.25 0 -1
lala 18 0.0375 first second 23 1 444 8 7.977499 1.33999705314636 0.25 1 -1
lala 22 38.4 first first 9 1 445 -8 337.06 0.799997568130493 0 1 1
lala 15 0.0046875 first second 22 1 446 8 3.315937 2.159996509552 0.25 0 -1
lala 19 0.075 first second 6 1 447 8 4.755 0.579997777938843 -0.25 0 -1
lala 19 0.009375 first second 12 1 448 6.6 6.84975 0.939997434616089 0 0 -1
lala 18 0.009375 first second 7 1 449 8 7.171251 1.73999691009521 -0.25 1 -1
lala 19 0.0375 second first 8 1 450 -8 -4.117501 4.41999435424805 0 0 -1
lala 20 0.0375 first second 8 1 451 -8 -4.155001 0.759997606277466 0 0 -1
lala 12 0.075 first first 1 1 452 -8 -4.940001 1.49999690055847 -0.25 1 1
lala 14 0.0375 second first 3 1 453 -6.6 -6.528 1.81999683380127 -0.25 1 -1
lala 19 0.001171875 second first 0 1 454 -8 -5.696015 -2.40000009536743 -0.25 0 -1
lala 14 0.0375 first first 5 1 455 6.6 7.203001 7.44003534317017 -0.25 1 1
lala 18 0.15 first first 4 1 456 6.6 6.381 0.699997663497925 -0.25 0 1
lala 19 0.0375 second second 23 1 457 8 8.014999 -2.40000009536743 0.25 1 1
lala 16 0.00234375 first second 22 1 458 8 3.318281 1.13999724388123 0.25 0 -1
lala 15 0.01875 first first 3 1 459 -6.6 -6.546751 1.23999714851379 -0.25 1 1
lala 15 9.6 first first 11 1 460 -6.6 -13.578 2.05999660491943 0 1 1
lala 22 0.0046875 second second 10 1 461 -6.6 -4.121625 -2.40000009536743 0 0 1
lala 21 0.6 second second 2 1 462 -6.6 -4.356 0.01999831199646 -0.25 0 1
lala 23 76.8 second second 9 1 463 -8 413.86 1.87999677658081 0 1 1
lala 13 0.0375 second second 1 1 464 -8 -4.902501 0.719997644424438 -0.25 1 1
lala 21 0.0375 first first 20 1 465 6.6 5.443499 3.89999485015869 0.25 0 1
lala 14 0.0375 first first 1 1 466 -8 -4.865001 2.67999601364136 -0.25 1 1
lala 20 0.01875 second second 23 1 467 8 7.996249 -2.40000009536743 0.25 1 1
lala 19 0.075 first first 4 1 468 6.6 6.306 1.93999671936035 -0.25 0 1
lala 26 0.009375 first first 16 1 469 -8 -5.814375 1.15999722480774 0.25 0 1
lala 15 0.0375 second second 5 1 470 6.6 7.165501 0.99999737739563 -0.25 1 1
lala 21 0.01875 first first 23 1 471 8 7.977499 0.439997911453247 0.25 1 1
lala 16 4.8 first first 11 1 472 -6.6 -8.778001 1.95999670028687 0 1 1
lala 22 0.01875 first first 20 1 473 6.6 5.424749 1.01999735832214 0.25 0 1
lala 24 0.15 second second 21 1 474 6.6 4.053 3.05999565124512 0.25 1 1
lala 24 0.01875 first second 17 1 475 -8 -6.121252 1.11999726295471 0.25 1 -1
lala 26 0.3 first second 18 1 476 -6.6 -5.255999 0.759997606277466 0.25 0 -1
lala 24 153.6 first first 9 1 477 -8 567.46 2.17999649047852 0 1 1
lala 22 0.01875 first second 23 1 478 8 7.958749 1.37999701499939 0.25 1 -1
lala 20 0.009375 second first 12 1 479 6.6 6.859125 -2.40000009536743 0 0 -1
lala 15 0.0375 second first 1 1 480 -8 -4.827501 -2.40000009536743 -0.25 1 -1
lala 22 0.3 second first 2 1 481 -6.6 -4.056 -2.40000009536743 -0.25 0 -1
lala 14 0.0375 first first 15 1 482 8 13.2275 1.37999701499939 0 1 1
lala 16 0.075 first second 5 1 483 6.6 7.090501 1.67999696731567 -0.25 1 -1
lala 17 4.8 second first 11 1 484 -6.6 -3.978001 5.09999370574951 0 1 -1
lala 23 0.00234375 first second 10 1 485 -6.6 -4.119281 4.55999422073364 0 0 -1
lala 25 0.15 first second 21 1 486 6.6 3.903 3.25999546051025 0.25 1 -1
lala 20 0.075 second first 4 1 487 6.6 6.231 1.49999690055847 -0.25 0 -1
lala 19 0.0046875 second second 7 1 488 8 7.175938 -2.40000009536743 -0.25 1 1
lala 16 0.009375 first first 3 1 489 -6.6 -6.537375 1.05999732017517 -0.25 1 1
lala 26 0.075 first second 21 1 490 6.6 3.978 1.83999681472778 0.25 1 -1
lala 17 0.00234375 second first 22 1 491 8 3.320624 -2.40000009536743 0.25 0 -1
lala 21 0.0375 first second 4 1 492 6.6 6.2685 1.19999718666077 -0.25 0 -1
lala 20 0.00234375 first first 7 1 493 8 7.173594 1.23999714851379 -0.25 1 1
lala 23 0.01875 first second 20 1 494 6.6 5.405999 1.25999712944031 0.25 0 -1
lala 15 0.01875 first first 15 1 495 8 13.20875 0.519997835159302 0 1 1
lala 25 0.009375 first first 17 1 496 -8 -6.130627 1.91999673843384 0.25 1 1
lala 21 0.0375 first second 8 1 497 -8 -4.192501 1.0999972820282 0 0 -1
lala 27 0.075 first second 21 1 498 6.6 4.053 2.75999593734741 0.25 1 -1
lala 19 0.01875 first first 19 1 499 -6.6 -6.499875 2.43999624252319 0.25 1 1
lala 24 0.009375 first second 20 1 500 6.6 5.415374 0.939997434616089 0.25 0 -1
lala 20 0.001171875 first second 0 1 501 -8 -5.697187 2.95999574661255 -0.25 0 -1
lala 17 0.0375 first first 5 1 502 6.6 7.128001 1.21999716758728 -0.25 1 1
lala 16 0.01875 second first 1 1 503 -8 -4.846251 0.679997682571411 -0.25 1 -1
lala 27 0.009375 first second 16 1 504 -8 -5.805 0.899997472763062 0.25 0 -1
lala 28 0.0046875 first second 16 1 505 -8 -5.809687 0.699997663497925 0.25 0 -1
lala 27 0.15 first second 14 1 506 8 5.655 1.7199969291687 0 0 -1
lala 25 307.2 first first 9 1 507 -8 874.66 0.519997835159302 0 1 1
lala 26 614.4 first second 9 1 508 -8 1489.06 1.15999722480774 0 1 -1
lala 23 0.009375 second second 23 1 509 8 7.968124 -2.40000009536743 0.25 1 1
lala 20 0.0375 second first 19 1 510 -6.6 -6.462375 2.09999656677246 0.25 1 -1
lala 17 0.01875 first second 1 1 511 -8 -4.865002 1.13999724388123 -0.25 1 -1
lala 29 0.0046875 first second 16 1 512 -8 -5.814374 0.759997606277466 0.25 0 -1
lala 28 0.075 first second 21 1 513 6.6 4.128 4.75999402999878 0.25 1 -1
lala 22 0.075 second first 8 1 514 -8 -4.2675 2.41999626159668 0 0 -1
lala 28 0.3 second first 14 1 515 8 5.955 1.47999691963196 0 0 -1
lala 17 0.009375 second second 3 1 516 -6.6 -6.528 1.13999724388123 -0.25 1 1
lala 18 0.009375 second second 3 1 517 -6.6 -6.518625 1.21999716758728 -0.25 1 1
lala 29 0.15 second first 21 1 518 6.6 4.278 4.47999429702759 0.25 1 -1
lala 22 0.0375 first first 4 1 519 6.6 6.306 0.899997472763062 -0.25 0 1
lala 21 0.01875 first first 19 1 520 -6.6 -6.481125 6.38001108169556 0.25 1 1
lala 18 2.4 first second 11 1 521 -6.6 -6.378001 1.07999730110168 0 1 -1
lala 20 0.075 first second 6 1 522 8 4.829999 9.98009347915649 -0.25 0 -1
lala 25 0.009375 first first 20 1 523 6.6 5.424749 1.89999675750732 0.25 0 1
lala 24 0.0046875 first first 23 1 524 8 7.963437 1.87999677658081 0.25 1 1
lala 21 0.01875 first first 12 1 525 6.6 6.877875 1.8599967956543 0 0 1
lala 30 0.3 first first 21 1 526 6.6 4.578001 2.2999963760376 0.25 1 1
lala 22 0.009375 first second 12 1 527 6.6 6.8685 0.579997777938843 0 0 -1
lala 31 0.15 first second 21 1 528 6.6 4.428 1.11999726295471 0.25 1 -1
lala 26 0.0046875 first first 20 1 529 6.6 5.420062 1.25999712944031 0.25 0 1
lala 19 0.01875 first second 3 1 530 -6.6 -6.499875 0.979997396469116 -0.25 1 -1
lala 30 0.0046875 second first 16 1 531 -8 -5.819062 1.25999712944031 0.25 0 -1
lala 21 0.00234375 first first 7 1 532 8 7.171251 2.21999645233154 -0.25 1 1
lala 27 0.0046875 first second 20 1 533 6.6 5.415374 0.839997529983521 0.25 0 -1
lala 23 0.15 second first 8 1 534 -8 -4.4175 2.89999580383301 0 0 -1
lala 21 0.075 second first 6 1 535 8 4.904999 -2.40000009536743 -0.25 0 -1
lala 19 2.4 second second 11 1 536 -6.6 -8.778001 4.1999945640564 0 1 1
lala 32 0.075 first second 21 1 537 6.6 4.503 1.97999668121338 0.25 1 -1
lala 21 0.01875 first first 13 1 538 6.6 5.028001 1.43999695777893 0 1 1
lala 18 0.01875 second first 5 1 539 6.6 7.109251 1.21999716758728 -0.25 1 -1
lala 20 0.009375 second second 3 1 540 -6.6 -6.50925 -2.40000009536743 -0.25 1 1
lala 23 0.0046875 first first 12 1 541 6.6 6.873187 1.55999684333801 0 0 1
lala 22 0.009375 first first 19 1 542 -6.6 -6.47175 1.75999689102173 0.25 1 1
lala 29 0.6 first first 14 1 543 8 6.555 0.819997549057007 0 0 1
lala 22 0.00234375 second first 7 1 544 8 7.168907 -2.40000009536743 -0.25 1 -1
lala 23 0.15 second first 2 1 545 -6.6 -4.206 5.59999322891235 -0.25 0 -1
lala 24 0.00234375 second second 12 1 546 6.6 6.870843 0.859997510910034 0 0 1
lala 25 0.0046875 first first 23 1 547 8 7.958749 0.61999773979187 0.25 1 1
lala 30 0.3 first first 14 1 548 8 6.255 0.679997682571411 0 0 1
lala 16 0.01875 first first 15 1 549 8 13.19 0.539997816085815 0 1 1
lala 23 0.009375 first first 19 1 550 -6.6 -6.462375 2.159996509552 0.25 1 1
lala 28 0.00234375 second second 20 1 551 6.6 5.417718 -2.40000009536743 0.25 0 1
lala 33 0.075 second first 21 1 552 6.6 4.578 -2.40000009536743 0.25 1 -1
lala 26 0.0046875 second first 17 1 553 -8 -6.125939 -2.40000009536743 0.25 1 -1
lala 23 0.01875 first second 4 1 554 6.6 6.28725 0.779997587203979 -0.25 0 -1
lala 24 0.009375 second second 4 1 555 6.6 6.296625 -2.40000009536743 -0.25 0 1
lala 22 0.15 first second 6 1 556 8 5.054999 1.5399968624115 -0.25 0 -1
lala 18 0.01875 first first 1 1 557 -8 -4.883752 0.639997720718384 -0.25 1 1
lala 19 0.009375 first second 1 1 558 -8 -4.874377 1.03999733924866 -0.25 1 -1
lala 22 0.01875 first second 13 1 559 6.6 5.009251 0.959997415542603 0 1 -1
lala 17 0.01875 second second 15 1 560 8 13.17125 -2.40000009536743 0 1 1
lala 24 0.001171875 second second 10 1 561 -6.6 -4.120453 -2.40000009536743 0 0 1
lala 23 0.001171875 first second 7 1 562 8 7.170079 0.779997587203979 -0.25 1 -1
lala 25 0.00234375 second second 12 1 563 6.6 6.8685 -2.40000009536743 0 0 1
lala 18 0.0375 second second 15 1 565 8 13.13375 4.9399938583374 0 1 1
lala 20 1.2 first first 11 1 566 -6.6 -7.578001 0.919997453689575 0 1 1
lala 25 0.0046875 first first 4 1 567 6.6 6.291937 0.61999773979187 -0.25 0 1
lala 24 0.15 first second 2 1 568 -6.6 -4.356 0.859997510910034 -0.25 0 -1
lala 18 0.00234375 first first 22 1 569 8 3.322968 0.739997625350952 0.25 0 1
lala 24 0.001171875 first second 7 1 570 8 7.171251 1.73999691009521 -0.25 1 -1
lala 23 0.009375 second second 13 1 571 6.6 5.018626 3.81999492645264 0 1 1
lala 25 0.001171875 first first 7 1 572 8 7.172423 0.859997510910034 -0.25 1 1
lala 26 0.0005859375 first first 7 1 573 8 7.171837 3.35999536514282 -0.25 1 1
lala 34 0.075 second second 21 1 575 6.6 4.653 -2.40000009536743 0.25 1 1
lala 26 0.0046875 second first 4 1 576 6.6 6.28725 3.97999477386475 -0.25 0 -1
lala 26 0.00234375 second second 12 1 577 6.6 6.866156 0.579997777938843 0 0 1
lala 27 307.2 first first 9 1 578 -8 1181.86 0.799997568130493 0 1 1
lala 31 0.3 first second 14 1 579 8 5.955 1.21999716758728 0 0 -1
lala 23 0.3 first first 6 1 580 8 5.355 1.01999735832214 -0.25 0 1
lala 26 0.0046875 first first 23 1 581 8 7.954062 0.579997777938843 0.25 1 1
lala 27 0.00234375 first second 4 1 582 6.6 6.289594 3.6199951171875 -0.25 0 -1
lala 20 0.0046875 first second 1 1 583 -8 -4.879064 1.27999711036682 -0.25 1 -1
lala 21 0.0046875 first second 1 1 585 -8 -4.883751 1.05999732017517 -0.25 1 -1
lala 27 0.009375 first second 23 1 586 8 7.944687 0.879997491836548 0.25 1 -1
lala 21 0.0046875 first first 3 1 587 -6.6 -6.504563 1.83999681472778 -0.25 1 1
lala 24 0.15 first first 6 1 588 8 5.204999 0.719997644424438 -0.25 0 1
lala 22 0.0046875 first second 1 1 589 -8 -4.888439 0.699997663497925 -0.25 1 -1
lala 25 0.15 first second 2 1 590 -6.6 -4.506 0.959997415542603 -0.25 0 -1
lala 27 0.00234375 first second 17 1 592 -8 -6.128283 0.459997892379761 0.25 1 -1
lala 32 0.15 first first 14 1 593 8 6.105 0.799997568130493 0 0 1
lala 25 0.0005859375 first second 10 1 594 -6.6 -4.119867 1.17999720573425 0 0 -1
lala 19 0.001171875 first second 22 1 595 8 3.321796 0.659997701644897 0.25 0 -1
lala 24 0.009375 first first 19 1 596 -6.6 -6.453 2.99999570846558 0.25 1 1
lala 21 1.2 first first 11 1 597 -6.6 -6.378001 1.05999732017517 0 1 1
lala 19 0.075 first first 15 1 598 8 13.05875 0.659997701644897 0 1 1
lala 24 0.3 first first 8 1 599 -8 -4.717501 1.41999697685242 0 0 1
lala 25 0.15 second first 8 1 600 -8 -4.567501 -2.40000009536743 0 0 -1
lala 25 0.15 second first 6 1 601 8 5.054999 -2.40000009536743 -0.25 0 -1
lala 21 0.001171875 first first 0 1 602 -8 -5.698359 2.159996509552 -0.25 0 1
lala 22 0.0005859375 first second 0 1 603 -8 -5.697773 1.67999696731567 -0.25 0 -1
lala 23 0.009375 first second 1 1 605 -8 -4.897814 1.15999722480774 -0.25 1 -1
lala 26 0.075 second first 6 1 606 8 5.129999 1.41999697685242 -0.25 0 -1
lala 26 0.075 second first 8 1 607 -8 -4.6425 -2.40000009536743 0 0 -1
lala 23 0.0002929688 second first 0 1 609 -8 -5.698066 2.85999584197998 -0.25 0 -1
lala 27 0.075 second first 6 1 610 8 5.204999 -2.40000009536743 -0.25 0 -1
lala 33 0.075 second second 14 1 611 8 6.03 -2.40000009536743 0 0 1
lala 26 0.3 second first 2 1 612 -6.6 -4.806 6.08000421524048 -0.25 0 -1
lala 27 0.15 first second 18 1 613 -6.6 -5.405999 1.43999695777893 0.25 0 -1
lala 28 0.075 first first 6 1 614 8 5.279999 0.859997510910034 -0.25 0 1
lala 24 0.0046875 second first 13 1 616 6.6 5.013938 -2.40000009536743 0 1 -1
lala 24 0.01875 second second 1 1 617 -8 -4.916564 -2.40000009536743 -0.25 1 1
lala 28 0.15 second second 18 1 618 -6.6 -5.555999 2.77999591827393 0.25 0 1
lala 28 153.6 second second 9 1 621 -8 1335.46 1.3999969959259 0 1 1
lala 25 0.01875 second second 19 1 623 -6.6 -6.434249 -2.40000009536743 0.25 1 1
lala 29 0.0375 second first 6 1 624 8 5.242499 1.67999696731567 -0.25 0 -1
lala 25 0.009375 first second 1 1 625 -8 -4.907189 1.91999673843384 -0.25 1 -1
lala 27 0.075 first first 8 1 626 -8 -4.7175 1.07999730110168 0 0 1
lala 27 0.6 second second 2 1 627 -6.6 -5.406 4.09999465942383 -0.25 0 1
lala 24 0.0002929688 second first 0 1 628 -8 -5.698359 1.15999722480774 -0.25 0 -1
lala 20 0.0005859375 first first 22 1 629 8 3.322382 1.15999722480774 0.25 0 1
lala 35 0.0375 first first 21 1 630 6.6 4.6155 3.83999490737915 0.25 1 1
lala 22 0.0046875 first first 3 1 631 -6.6 -6.499876 0.61999773979187 -0.25 1 1
lala 20 0.15 first first 15 1 632 8 12.90875 0.459997892379761 0 1 1
lala 26 0.0375 first second 19 1 633 -6.6 -6.396749 0.979997396469116 0.25 1 -1
lala 29 153.6 first first 9 1 634 -8 1489.06 0.839997529983521 0 1 1
lala 25 0.00234375 first second 13 1 635 6.6 5.016282 2.91999578475952 0 1 -1
lala 28 0.0375 first second 8 1 636 -8 -4.68 1.79999685287476 0 0 -1
lala 21 0.3 first first 15 1 637 8 12.60875 0.519997835159302 0 1 1
lala 22 0.6 first second 15 1 638 8 12.00875 0.899997472763062 0 1 -1
lala 34 0.075 second first 14 1 640 8 5.955 -2.40000009536743 0 0 -1
lala 21 0.0002929688 first second 22 1 641 8 3.322089 2.79999589920044 0.25 0 -1
lala 28 0.00234375 first first 4 1 643 6.6 6.291937 2.35999631881714 -0.25 0 1
lala 27 0.01875 second first 19 1 645 -6.6 -6.4155 -2.40000009536743 0.25 1 -1
lala 26 0.00234375 first second 13 1 646 6.6 5.018626 1.0999972820282 0 1 -1
lala 28 0.3 first first 2 1 647 -6.6 -5.106 1.21999716758728 -0.25 0 1
lala 19 0.009375 first second 5 1 649 6.6 7.118626 1.73999691009521 -0.25 1 -1
lala 28 0.01875 first second 19 1 650 -6.6 -6.43425 1.3999969959259 0.25 1 -1
lala 22 1.2 first second 11 1 651 -6.6 -5.178001 1.01999735832214 0 1 -1
lala 20 0.009375 first first 5 1 652 6.6 7.128001 1.93999671936035 -0.25 1 1
lala 29 0.01875 first second 19 1 653 -6.6 -6.453 1.25999712944031 0.25 1 -1
lala 30 0.0375 second second 19 1 656 -6.6 -6.4905 -2.40000009536743 0.25 1 1
lala 29 0.01875 second first 8 1 658 -8 -4.69875 0.699997663497925 0 0 -1
lala 30 0.01875 first second 8 1 659 -8 -4.717501 0.639997720718384 0 0 -1
lala 31 0.01875 first first 19 1 661 -6.6 -6.47175 0.61999773979187 0.25 1 1
lala 27 0.00234375 first first 13 1 663 6.6 5.020969 2.23999643325806 0 1 1
lala 26 0.0002929688 first second 10 1 667 -6.6 -4.12016 0.779997587203979 0 0 -1
lala 29 0.075 first first 18 1 668 -6.6 -5.480999 1.41999697685242 0.25 0 1
lala 32 0.01875 second second 19 1 670 -6.6 -6.453 -2.40000009536743 0.25 1 1
lala 33 0.01875 first second 19 1 671 -6.6 -6.434249 0.759997606277466 0.25 1 -1
lala 29 0.3 second second 2 1 672 -6.6 -4.806 -2.40000009536743 -0.25 0 1
lala 34 0.009375 second second 19 1 673 -6.6 -6.443624 -2.40000009536743 0.25 1 1
lala 30 0.075 second first 18 1 674 -6.6 -5.405999 -2.40000009536743 0.25 0 -1
lala 23 0.3 first first 15 1 676 8 12.30875 4.83999395370483 0 1 1
lala 25 0.0002929688 second second 0 1 678 -8 -5.698652 2.11999654769897 -0.25 0 1
lala 35 0.0046875 second second 19 1 679 -6.6 -6.438937 -2.40000009536743 0.25 1 1
lala 30 153.6 first first 9 1 680 -8 1642.66 0.499997854232788 0 1 1
lala 23 0.0046875 first first 3 1 682 -6.6 -6.495188 1.07999730110168 -0.25 1 1
lala 26 0.0001464844 first first 0 1 683 -8 -5.698505 1.65999698638916 -0.25 0 1
lala 31 307.2 first second 9 1 684 -8 1949.86 1.11999726295471 0 1 -1
lala 24 0.15 second second 15 1 685 8 12.15875 -2.40000009536743 0 1 1
lala 23 0.6 second first 11 1 688 -6.6 -5.778001 4.55999422073364 0 1 -1
lala 21 0.0046875 second second 5 1 689 6.6 7.123313 -2.40000009536743 -0.25 1 1
lala 28 0.00234375 second first 17 1 690 -8 -6.130627 -2.40000009536743 0.25 1 -1
lala 35 0.0375 first second 14 1 692 8 5.9925 4.73999404907227 0 0 -1
lala 31 0.0375 first second 18 1 693 -6.6 -5.443499 0.939997434616089 0.25 0 -1
lala 29 0.00234375 first first 17 1 696 -8 -6.13297 0.579997777938843 0.25 1 1
lala 32 0.0375 first second 18 1 699 -6.6 -5.480999 0.819997549057007 0.25 0 -1
lala 30 0.3 first first 2 1 700 -6.6 -4.506 0.779997587203979 -0.25 0 1
lala 22 0.0046875 first first 5 1 702 6.6 7.118626 2.43999624252319 -0.25 1 1
lala 33 0.0375 first second 18 1 704 -6.6 -5.518499 1.37999701499939 0.25 0 -1
lala 34 0.075 first first 18 1 705 -6.6 -5.593499 2.31999635696411 0.25 0 1
lala 26 0.0046875 first second 1 1 706 -8 -4.911876 2.25999641418457 -0.25 1 -1
lala 32 153.6 first first 9 1 707 -8 1796.26 0.479997873306274 0 1 1
lala 31 0.01875 first first 8 1 709 -8 -4.736251 1.15999722480774 0 0 1
lala 24 0.6 second second 11 1 710 -6.6 -6.378001 -2.40000009536743 0 1 1
lala 24 0.009375 second second 3 1 711 -6.6 -6.485813 -2.40000009536743 -0.25 1 1
lala 35 0.0375 second first 18 1 712 -6.6 -5.555999 -2.40000009536743 0.25 0 -1
lala 25 0.3 second first 11 1 713 -6.6 -6.078001 -2.40000009536743 0 1 -1
lala 25 0.15 first second 15 1 714 8 12.00875 1.23999714851379 0 1 -1
lala 26 0.075 first first 15 1 715 8 12.08375 1.67999696731567 0 1 1
lala 25 0.01875 first first 3 1 716 -6.6 -6.467063 2.2999963760376 -0.25 1 1
lala 27 0.0375 first first 15 1 718 8 12.04625 5.67999505996704 0 1 1
lala 26 0.15 second second 11 1 719 -6.6 -6.228001 -2.40000009536743 0 1 1
lala 27 0.0046875 second second 1 1 720 -8 -4.916564 3.13999557495117 -0.25 1 1
lala 23 0.0046875 second second 5 1 721 6.6 7.113939 -2.40000009536743 -0.25 1 1
lala 33 76.8 first first 9 1 723 -8 1873.06 0.599997758865356 0 1 1
lala 22 0.0001464844 first second 22 1 724 8 3.322236 1.7199969291687 0.25 0 -1
lala 34 76.8 second second 9 1 729 -8 1949.86 -2.40000009536743 0 1 1
lala 28 0.00234375 second second 1 1 730 -8 -4.91422 -2.40000009536743 -0.25 1 1
lala 31 0.6 second second 2 1 731 -6.6 -3.906 -2.40000009536743 -0.25 0 1
lala 32 0.009375 second first 8 1 733 -8 -4.726876 3.93999481201172 0 0 -1
lala 24 0.009375 first first 5 1 735 6.6 7.104564 0.499997854232788 -0.25 1 1
lala 32 1.2 first first 2 1 738 -6.6 -2.706 0.759997606277466 -0.25 0 1
lala 33 2.4 first first 2 1 740 -6.6 -0.3059995 2.159996509552 -0.25 0 1
lala 34 4.8 first second 2 1 741 -6.6 4.494 0.759997606277466 -0.25 0 -1
lala 30 0.01875 first second 6 1 744 8 5.261249 1.0999972820282 -0.25 0 -1
lala 28 0.0375 first first 15 1 746 8 12.00875 0.519997835159302 0 1 1
lala 31 0.01875 first first 6 1 747 8 5.279999 0.779997587203979 -0.25 0 1
lala 35 76.8 first second 9 1 749 -8 2026.66 1.21999716758728 0 1 -1
lala 29 0.00234375 second first 1 1 750 -8 -4.911876 1.69999694824219 -0.25 1 -1
lala 33 0.0046875 second first 8 1 751 -8 -4.731563 -2.40000009536743 0 0 -1
lala 34 0.0046875 second first 8 1 753 -8 -4.73625 2.09999656677246 0 0 -1
lala 27 0.075 first second 11 1 754 -6.6 -6.153001 0.599997758865356 0 1 -1
lala 25 0.01875 first first 5 1 755 6.6 7.085814 1.21999716758728 -0.25 1 1
lala 26 0.0375 first first 3 1 760 -6.6 -6.429563 3.77999496459961 -0.25 1 1
lala 26 0.0375 first second 5 1 761 6.6 7.048314 2.49999618530273 -0.25 1 -1
lala 23 0.0001464844 first first 22 1 762 8 3.322382 1.73999691009521 0.25 0 1
lala 28 0.0375 first first 11 1 764 -6.6 -6.190501 8.4800591468811 0 1 1
lala 35 2.4 first second 2 1 769 -6.6 2.094 0.959997415542603 -0.25 0 -1
lala 29 0.0375 first first 15 1 770 8 11.97125 3.59999513626099 0 1 1
lala 35 0.0046875 first first 8 1 771 -8 -4.740938 2.2999963760376 0 0 1
lala 27 0.01875 first second 5 1 772 6.6 7.067064 1.59999680519104 -0.25 1 -1
lala 30 0.075 first second 15 1 773 8 11.89625 1.49999690055847 0 1 -1
lala 32 0.009375 second second 6 1 775 8 5.270624 1.51999688148499 -0.25 0 1
lala 29 0.01875 second second 11 1 777 -6.6 -6.171751 -2.40000009536743 0 1 1
lala 30 0.01875 first first 11 1 779 -6.6 -6.153001 0.739997625350952 0 1 1
lala 31 0.01875 first first 11 1 780 -6.6 -6.134251 1.87999677658081 0 1 1
lala 28 0.01875 second second 5 1 781 6.6 7.085814 2.5999960899353 -0.25 1 1
lala 31 0.0375 first first 15 1 784 8 11.93375 0.559997797012329 0 1 1
lala 29 0.009375 first second 5 1 786 6.6 7.076439 0.679997682571411 -0.25 1 -1
lala 32 0.01875 first first 15 1 788 8 11.915 0.599997758865356 0 1 1
lala 24 7.324219E-05 first second 22 1 789 8 3.322309 2.01999664306641 0.25 0 -1
lala 32 0.0375 first second 11 1 790 -6.6 -6.096751 1.69999694824219 0 1 -1
lala 33 0.009375 first second 6 1 792 8 5.261249 4.23999452590942 -0.25 0 -1
lala 33 0.01875 first first 11 1 793 -6.6 -6.115501 0.959997415542603 0 1 1
lala 27 0.075 first second 3 1 794 -6.6 -6.354563 1.41999697685242 -0.25 1 -1
lala 30 0.0046875 second second 5 1 799 6.6 7.081126 0.719997644424438 -0.25 1 1
lala 34 0.009375 first second 11 1 800 -6.6 -6.106126 2.159996509552 0 1 -1
lala 33 0.01875 first second 15 1 801 8 11.89625 1.51999688148499 0 1 -1
lala 25 3.66211E-05 first second 22 1 802 8 3.322345 1.41999697685242 0.25 0 -1
lala 31 0.00234375 first first 5 1 803 6.6 7.078783 0.419997930526733 -0.25 1 1
lala 35 0.0046875 first second 11 1 805 -6.6 -6.110813 1.29999709129334 0 1 -1
lala 28 0.0375 first first 3 1 806 -6.6 -6.392063 3.77999496459961 -0.25 1 1
lala 26 3.66211E-05 first first 22 1 807 8 3.322382 0.479997873306274 0.25 0 1
lala 29 0.01875 first first 3 1 812 -6.6 -6.373313 2.07999658584595 -0.25 1 1
lala 30 0.01875 first second 3 1 814 -6.6 -6.354563 2.37999629974365 -0.25 1 -1
lala 34 0.009375 first first 15 1 817 8 11.90562 0.61999773979187 0 1 1
lala 35 0.0046875 first first 15 1 818 8 11.90094 0.61999773979187 0 1 1
lala 34 0.0046875 first second 6 1 823 8 5.265936 1.49999690055847 -0.25 0 -1
lala 35 0.0046875 second second 6 1 824 8 5.270624 -2.40000009536743 -0.25 0 1
lala 31 0.009375 second second 3 1 825 -6.6 -6.363938 -2.40000009536743 -0.25 1 1
lala 32 0.00234375 first first 5 1 827 6.6 7.076439 2.65999603271484 -0.25 1 1
lala 32 0.0046875 first second 3 1 829 -6.6 -6.359251 1.23999714851379 -0.25 1 -1
lala 33 0.00234375 first first 3 1 831 -6.6 -6.361594 4.01999473571777 -0.25 1 1
lala 34 0.001171875 first first 3 1 833 -6.6 -6.360422 1.0999972820282 -0.25 1 1
lala 35 0.001171875 first first 3 1 836 -6.6 -6.35925 2.53999614715576 -0.25 1 1
lala 33 0.00234375 first second 5 1 838 6.6 7.074095 2.33999633789063 -0.25 1 -1
