subject PestNr Step_Size_OnTrial Response_Interval Pest_Interval Condition block trial velH velH_Pest Reaction_Time velH_Subject Start_Above Response_MotionEstimation RightOrLeft
lala 1 1.2 first first 14 1 1 8 5.28 0.255611181259155 0 0 1 1
lala 1 1.2 first second 17 1 2 6.6 8.778 7.9779372215271 0.25 1 -1 1
lala 1 1.2 second second 24 1 3 6.6 4.356 2.61119842529297 1 0 1 1
lala 1 1.2 second second 3 1 4 8 10.64 0.877841711044312 -1 1 1 1
lala 1 1.2 second second 30 1 5 8 5.28 1.35562586784363 2 0 1 0
lala 1 1.2 first first 15 1 6 8 10.64 0.988954305648804 0 1 1 1
lala 2 1.2 first second 30 1 7 8 4.08 0.733395338058472 2 0 -1 0
lala 1 1.2 first second 28 1 8 6.6 4.356 0.688950300216675 2 0 -1 0
lala 1 1.2 first first 23 1 9 8 10.64 0.866730451583862 0.5 1 1 1
lala 1 1.2 first second 16 1 10 6.6 4.356 0.922286748886108 0.25 0 -1 1
lala 2 1.2 first first 15 1 11 8 9.440001 4.44455623626709 0 1 1 0
lala 1 1.2 second first 12 1 12 6.6 4.356 0.888952970504761 0 0 -1 0
lala 1 1.2 second second 21 1 13 6.6 8.778 0.733395338058472 0.5 1 1 0
lala 1 1.2 second first 10 1 14 8 5.28 1.53340601921082 -0.25 0 -1 0
lala 1 1.2 first first 11 1 15 8 10.64 1.67785263061523 -0.25 1 1 0
lala 2 1.2 first second 24 1 16 6.6 3.156 3.42232036590576 1 0 -1 0
lala 3 1.2 first first 30 1 17 8 5.28 2.38897323608398 2 0 1 1
lala 2 1.2 first second 14 1 18 8 4.08 1.41118216514587 0 0 -1 1
lala 1 1.2 first first 20 1 19 6.6 4.356 1.17784571647644 0.5 0 1 1
lala 1 1.2 first first 5 1 20 6.6 8.778 0.811174154281616 -0.5 1 1 1
lala 1 1.2 second first 9 1 21 6.6 8.778 1.00006556510925 -0.25 1 -1 0
lala 1 1.2 second first 4 1 22 6.6 4.356 1.06673312187195 -0.5 0 -1 1
lala 3 1.2 second second 14 1 23 8 5.28 0.655616521835327 0 0 1 1
lala 2 1.2 second second 16 1 24 6.6 5.556 2.68897724151611 0.25 0 1 1
lala 2 1.2 first first 9 1 25 6.6 9.978 0.722284078598022 -0.25 1 1 1
lala 3 1.2 second first 9 1 26 6.6 8.778 1.73340892791748 -0.25 1 -1 1
lala 2 1.2 second first 20 1 27 6.6 3.156 2.51119709014893 0.5 0 -1 1
lala 1 1.2 second second 27 1 28 8 10.64 0.733395338058472 1 1 1 1
lala 2 1.2 first first 11 1 29 8 9.440001 1.55562853813171 -0.25 1 1 0
lala 3 1.2 first second 16 1 30 6.6 4.356 0.811174154281616 0.25 0 -1 1
lala 1 1.2 first first 31 1 31 8 10.64 1.34451460838318 2 1 1 0
lala 1 1.2 first first 29 1 32 6.6 8.778 0.588948965072632 2 1 1 0
lala 1 1.2 first first 8 1 33 6.6 4.356 1.02228808403015 -0.25 0 1 0
lala 2 1.2 second second 3 1 34 8 9.440001 0.700061559677124 -1 1 1 0
lala 2 1.2 first second 29 1 35 6.6 7.578 0.455613851547241 2 1 -1 0
lala 4 1.2 first first 9 1 36 6.6 9.978 0.577837705612183 -0.25 1 1 0
lala 4 1.2 second first 16 1 37 6.6 5.556 0.777840375900269 0.25 0 -1 0
lala 3 1.2 first second 20 1 38 6.6 4.356 0.711172819137573 0.5 0 -1 1
lala 1 1.2 first second 26 1 39 8 5.28 0.844507932662964 1 0 -1 0
lala 1 1.2 first second 0 1 40 6.6 4.356 2.52230834960938 -1 0 -1 1
lala 2 1.2 second second 27 1 41 8 9.440001 0.766729116439819 1 1 1 1
lala 1 1.2 first first 22 1 42 8 5.28 1.95563411712646 0.5 0 1 1
lala 2 1.2 second second 23 1 43 8 9.440001 0.288944959640503 0.5 1 1 0
lala 1 1.2 first first 1 1 44 6.6 8.778 0.266722440719604 -1 1 1 0
lala 1 1.2 second second 2 1 45 8 5.28 2.58897590637207 -1 0 1 1
lala 5 0.6 first first 9 1 46 6.6 9.377999 0.866730451583862 -0.25 1 1 1
lala 3 1.2 second second 3 1 47 8 8.240001 5.84457540512085 -1 1 1 0
lala 4 1.2 second first 3 1 48 8 7.040001 1.04451060295105 -1 1 -1 0
lala 3 1.2 second second 29 1 49 6.6 8.778 0.511170148849487 2 1 1 0
lala 3 1.2 second second 11 1 50 8 8.240001 1.57785105705261 -0.25 1 1 0
lala 1 1.2 first first 13 1 51 6.6 8.778 0.700061559677124 0 1 1 0
lala 1 1.2 first first 25 1 52 6.6 8.778 1.14451193809509 1 1 1 0
lala 5 0.6 first second 3 1 53 8 7.640001 1.11117815971375 -1 1 -1 0
lala 1 1.2 first second 18 1 54 8 5.28 2.11119174957275 0.25 0 -1 1
lala 2 1.2 first first 21 1 55 6.6 7.578 0.944509267807007 0.5 1 1 0
lala 2 1.2 second first 22 1 56 8 4.08 0.255611181259155 0.5 0 -1 1
lala 2 1.2 first first 5 1 57 6.6 7.578 2.35563945770264 -0.5 1 1 1
lala 5 1.2 second second 16 1 58 6.6 6.756 2.9112024307251 0.25 0 1 1
lala 3 1.2 first second 22 1 59 8 5.28 0.433391332626343 0.5 0 -1 1
lala 2 1.2 first first 13 1 60 6.6 7.578 0.722284078598022 0 1 1 1
lala 4 1.2 first first 11 1 61 8 7.040001 2.1223030090332 -0.25 1 1 0
lala 2 1.2 first second 0 1 62 6.6 5.556 0.822285413742065 -1 0 -1 1
lala 2 1.2 first first 26 1 63 8 6.48 1.55562853813171 1 0 1 0
lala 2 1.2 second second 10 1 64 8 6.48 2.31119441986084 -0.25 0 1 0
lala 1 1.2 first second 6 1 65 8 5.28 0.622282743453979 -0.5 0 -1 1
lala 2 1.2 first second 4 1 66 6.6 5.556 0.644505262374878 -0.5 0 -1 0
lala 2 1.2 first second 2 1 67 8 4.08 0.744506597518921 -1 0 -1 0
lala 4 1.2 first second 30 1 68 8 4.08 0.422280073165894 2 0 -1 0
lala 3 1.2 first first 4 1 69 6.6 6.756 0.577837705612183 -0.5 0 1 1
lala 3 1.2 second first 24 1 70 6.6 4.356 0.888952970504761 1 0 -1 0
lala 3 1.2 second first 13 1 71 6.6 6.378 2.28897190093994 0 1 -1 1
lala 4 1.2 second first 24 1 72 6.6 5.556 1.91118907928467 1 0 -1 0
lala 4 1.2 first second 14 1 73 8 4.08 1.66674137115479 0 0 -1 1
lala 6 0.6 second first 16 1 74 6.6 6.156 0.911175489425659 0.25 0 -1 1
lala 4 1.2 first first 22 1 75 8 6.48 1.64451885223389 0.5 0 1 1
lala 3 1.2 first first 23 1 76 8 8.240001 1.13340067863464 0.5 1 1 0
lala 3 1.2 first first 5 1 77 6.6 6.378 0.75561785697937 -0.5 1 1 1
lala 4 1.2 second second 13 1 78 6.6 7.578 0.888952970504761 0 1 1 0
lala 2 1.2 second first 12 1 79 6.6 5.556 3.12231636047363 0 0 -1 0
lala 4 1.2 second second 23 1 80 8 7.040001 1.48896098136902 0.5 1 1 1
lala 3 1.2 first first 15 1 81 8 8.240001 3.78899192810059 0 1 1 0
lala 2 1.2 second first 25 1 82 6.6 7.578 1.91118907928467 1 1 -1 1
lala 3 1.2 second first 10 1 83 8 5.280001 2.38897323608398 -0.25 0 -1 0
lala 3 1.2 second second 12 1 84 6.6 6.756 170.056283473969 0 0 1 1
lala 5 0.6 first first 22 1 85 8 5.88 2.53341960906982 0.5 0 1 1
lala 4 1.2 second first 15 1 86 8 7.040001 1.43340468406677 0 1 -1 0
lala 2 1.2 first second 6 1 87 8 6.48 0.511170148849487 -0.5 0 -1 0
lala 2 1.2 second second 31 1 88 8 9.440001 0.46672511100769 2 1 1 1
lala 3 1.2 first first 6 1 89 8 7.68 0.18894362449646 -0.5 0 1 1
lala 3 1.2 second second 26 1 90 8 5.280001 2.31119441986084 1 0 1 0
lala 5 0.6 second second 30 1 91 8 4.68 1.27784705162048 2 0 1 1
lala 6 0.6 second second 3 1 92 8 8.240001 0.411168813705444 -1 1 1 0
lala 4 1.2 first second 4 1 93 6.6 5.556 0.488947629928589 -0.5 0 -1 1
lala 2 1.2 second second 28 1 94 6.6 5.556 0.955620527267456 2 0 1 0
lala 3 1.2 second second 31 1 95 8 8.240001 1.51118350028992 2 1 1 1
lala 7 0.3 first second 16 1 96 6.6 6.456 1.0333993434906 0.25 0 -1 1
lala 2 1.2 second first 8 1 97 6.6 3.156 0.433391332626343 -0.25 0 -1 1
lala 3 1.2 first first 25 1 98 6.6 8.778 0.566726446151733 1 1 1 1
lala 4 1.2 first first 5 1 99 6.6 5.178 0.877841711044312 -0.5 1 1 0
lala 2 1.2 second second 18 1 100 8 6.48 1.41118216514587 0.25 0 1 1
lala 7 0.3 first first 3 1 101 8 7.940001 0.266722440719604 -1 1 1 0
lala 3 1.2 first second 18 1 102 8 5.280001 1.18895697593689 0.25 0 -1 0
lala 4 1.2 second second 31 1 103 8 7.040001 0.255611181259155 2 1 1 1
lala 5 0.6 first first 15 1 104 8 7.640001 0.344501256942749 0 1 1 0
lala 6 0.3 second first 15 1 105 8 7.340001 2.94453620910645 0 1 -1 0
lala 6 0.6 first second 22 1 106 8 5.28 0.633394002914429 0.5 0 -1 1
lala 7 0.3 second first 22 1 107 8 5.58 4.9667854309082 0.5 0 -1 1
lala 1 1.2 first first 19 1 108 8 10.64 0.922286748886108 0.25 1 1 1
lala 2 1.2 first first 19 1 109 8 9.440001 3.22231769561768 0.25 1 1 0
lala 5 2.4 first second 11 1 110 8 4.640001 1.13340067863464 -0.25 1 -1 1
lala 4 1.2 first first 12 1 111 6.6 5.556 1.65563011169434 0 0 1 1
lala 6 0.3 first second 30 1 112 8 4.38 0.366723775863647 2 0 -1 1
lala 4 1.2 first first 25 1 113 6.6 7.578 0.100053548812866 1 1 1 0
lala 4 1.2 first first 29 1 114 6.6 7.578 0.100053548812866 2 1 1 1
lala 4 1.2 first second 6 1 115 8 6.48 0.722284078598022 -0.5 0 -1 1
lala 4 1.2 second first 26 1 116 8 4.080001 0.355612516403198 1 0 -1 0
lala 5 0.6 second second 13 1 117 6.6 6.978 0.966731786727905 0 1 1 0
lala 3 1.2 second second 19 1 118 8 8.240001 0.866730451583862 0.25 1 1 1
lala 3 1.2 first second 21 1 119 6.6 6.378 0.866730451583862 0.5 1 -1 0
lala 4 1.2 second first 19 1 120 8 7.040001 8.33349752426147 0.25 1 -1 1
lala 8 0.3 first second 22 1 121 8 5.88 0.377835035324097 0.5 0 -1 1
lala 3 1.2 first second 0 1 122 6.6 6.756 0.500058889389038 -1 0 -1 0
lala 2 1.2 first second 1 1 123 6.6 7.578 3.30009651184082 -1 1 -1 1
lala 8 0.3 second second 3 1 124 8 7.64 0.600060224533081 -1 1 1 1
lala 5 0.6 second first 14 1 125 8 4.68 0.355612516403198 0 0 -1 1
lala 5 0.6 second second 4 1 126 6.6 6.156 2.52230834960938 -0.5 0 1 0
lala 5 1.2 first second 29 1 127 6.6 6.378 0.733395338058472 2 1 -1 1
lala 4 1.2 first first 0 1 128 6.6 7.955999 0.644505262374878 -1 0 1 1
lala 5 0.6 second second 0 1 129 6.6 7.355999 2.1445255279541 -1 0 1 1
lala 6 1.2 first first 11 1 130 8 5.840001 1.35562586784363 -0.25 1 1 0
lala 6 0.6 second first 0 1 131 6.6 6.756 2.03341293334961 -1 0 -1 0
lala 9 0.3 first second 3 1 132 8 7.34 1.36673712730408 -1 1 -1 0
lala 7 0.15 second second 15 1 133 8 7.490001 0.955620527267456 0 1 1 0
lala 5 2.4 second second 24 1 134 6.6 7.956 1.37784838676453 1 0 1 1
lala 4 1.2 second second 21 1 135 6.6 7.578 0.400057554244995 0.5 1 1 0
lala 7 0.15 first first 30 1 136 8 4.53 1.71118640899658 2 0 1 0
lala 6 1.2 second first 24 1 137 6.6 6.756 1.18895697593689 1 0 -1 1
lala 3 1.2 second first 2 1 138 8 5.28 2.8889799118042 -1 0 -1 1
lala 6 0.6 second second 13 1 139 6.6 6.378 0.555615186691284 0 1 1 1
lala 6 0.3 first first 4 1 140 6.6 5.855999 4.17788600921631 -0.5 0 1 1
lala 4 1.2 second first 2 1 141 8 6.48 0.555615186691284 -1 0 -1 1
lala 5 0.6 second second 6 1 142 8 7.08 1.16673445701599 -0.5 0 1 0
lala 5 2.4 second second 2 1 143 8 8.879999 0.433391332626343 -1 0 1 0
lala 3 1.2 second first 8 1 144 6.6 4.356 0.566726446151733 -0.25 0 -1 1
lala 7 0.3 second first 4 1 145 6.6 5.555999 1.66674137115479 -0.5 0 -1 0
lala 6 1.2 second second 2 1 146 8 7.679999 2.30008316040039 -1 0 1 0
lala 8 0.075 first second 30 1 147 8 4.455 0.90006422996521 2 0 -1 0
lala 4 1.2 second second 18 1 148 8 6.48 0.655616521835327 0.25 0 1 1
lala 4 1.2 second second 8 1 149 6.6 5.556 10.0224089622498 -0.25 0 1 1
lala 6 0.6 second second 9 1 150 6.6 8.777999 0.255611181259155 -0.25 1 1 1
lala 1 1.2 second first 7 1 151 8 10.64 2.26674938201904 -0.5 1 -1 0
lala 7 0.6 first first 11 1 152 8 5.240001 1.0333993434906 -0.25 1 1 1
lala 8 0.3 second first 16 1 153 6.6 6.756 1.87785530090332 0.25 0 -1 0
lala 5 1.2 second second 25 1 154 6.6 6.378 1.74452018737793 1 1 1 1
lala 2 1.2 second second 17 1 155 6.6 9.978 0.244499921798706 0.25 1 1 1
lala 6 2.4 second second 25 1 156 6.6 3.978 8.32238626480103 1 1 1 1
lala 5 2.4 second first 5 1 157 6.6 2.778 0.366723775863647 -0.5 1 -1 0
lala 7 0.3 second second 0 1 158 6.6 7.056 0.288944959640503 -1 0 1 0
lala 4 1.2 first first 20 1 159 6.6 5.556 0.300056219100952 0.5 0 1 1
lala 8 0.075 first first 15 1 160 8 7.415001 0.677839040756226 0 1 1 1
lala 6 0.3 second second 6 1 161 8 6.78 0.800062894821167 -0.5 0 1 1
lala 7 1.2 second first 2 1 162 8 6.48 0.411168813705444 -1 0 -1 0
lala 8 0.6 second first 2 1 163 8 7.079999 1.13340067863464 -1 0 -1 1
lala 3 1.2 first second 28 1 164 6.6 4.356 0.75561785697937 2 0 -1 1
lala 9 0.075 first first 15 1 165 8 7.340001 0.588948965072632 0 1 1 0
lala 4 1.2 first first 28 1 166 6.6 5.556 0.600060224533081 2 0 1 0
lala 6 0.6 second second 29 1 167 6.6 6.978 0.822285413742065 2 1 1 0
lala 8 0.15 first first 0 1 168 6.6 6.906 0.800062894821167 -1 0 1 0
lala 10 0.15 first first 3 1 169 8 7.49 0.366723775863647 -1 1 1 0
lala 2 1.2 first first 7 1 170 8 11.84 2.97786998748779 -0.5 1 1 1
lala 9 0.15 first second 0 1 171 6.6 6.756 0.722284078598022 -1 0 -1 0
lala 5 2.4 second first 31 1 172 8 4.640001 0.233388662338257 2 1 -1 1
lala 8 0.15 second first 4 1 173 6.6 5.705999 2.36675071716309 -0.5 0 -1 0
lala 9 0.3 second first 16 1 174 6.6 7.056 1.25562453269959 0.25 0 -1 1
lala 3 1.2 second second 1 1 175 6.6 8.778 0.844507932662964 -1 1 1 0
lala 10 0.6 first first 16 1 176 6.6 7.656 0.955620527267456 0.25 0 1 1
lala 7 0.6 first first 24 1 177 6.6 7.355999 0.488947629928589 1 0 1 1
lala 6 1.2 second second 31 1 178 8 5.840001 1.11117815971375 2 1 1 1
lala 3 1.2 second second 7 1 179 8 10.64 2.11119174957275 -0.5 1 1 0
lala 7 0.6 second second 9 1 180 6.6 8.177999 0.47783637046814 -0.25 1 1 1
lala 6 1.2 second first 5 1 181 6.6 3.978 0.266722440719604 -0.5 1 -1 1
lala 8 1.2 second second 9 1 182 6.6 6.977999 0.411168813705444 -0.25 1 1 1
lala 8 0.6 first second 11 1 183 8 4.640001 0.566726446151733 -0.25 1 -1 0
lala 4 1.2 second second 1 1 184 6.6 7.578 0.844507932662964 -1 1 1 1
lala 5 0.6 first second 20 1 185 6.6 4.956 0.944509267807007 0.5 0 -1 0
lala 5 0.6 first second 26 1 186 8 4.680001 0.588948965072632 1 0 -1 1
lala 5 0.6 second second 19 1 187 8 7.640001 0.3333899974823 0.25 1 1 1
lala 9 0.15 second second 4 1 188 6.6 5.855999 0.933398008346558 -0.5 0 1 0
lala 9 0.3 first first 22 1 189 8 6.18 0.222277402877808 0.5 0 1 0
lala 10 0.075 second first 0 1 190 6.6 6.830999 0.344501256942749 -1 0 -1 1
lala 10 0.075 second second 15 1 191 8 7.265001 0.644505262374878 0 1 1 1
lala 6 0.3 first second 20 1 192 6.6 5.256 0.366723775863647 0.5 0 -1 0
lala 11 0.075 second first 3 1 193 8 7.415 0.822285413742065 -1 1 -1 1
lala 7 0.3 second first 6 1 194 8 6.48 0.600060224533081 -0.5 0 -1 0
lala 6 0.6 first second 14 1 195 8 5.28 0.311167478561401 0 0 -1 1
lala 5 0.6 second first 28 1 196 6.6 4.956 0.544503927230835 2 0 -1 0
lala 8 0.3 second first 24 1 197 6.6 7.055999 0.655616521835327 1 0 -1 0
lala 9 0.15 first first 24 1 198 6.6 7.205999 0.144498586654663 1 0 1 1
lala 10 0.075 first first 4 1 199 6.6 5.781 0.488947629928589 -0.5 0 1 0
lala 9 0.6 second second 2 1 200 8 7.679999 0.266722440719604 -1 0 1 1
lala 10 0.3 second second 2 1 201 8 7.379999 0.300056219100952 -1 0 1 0
lala 11 0.075 first second 4 1 202 6.6 5.706 1.0778443813324 -0.5 0 -1 1
lala 5 1.2 first first 1 1 203 6.6 6.378 0.566726446151733 -1 1 1 1
lala 7 4.8 second first 25 1 204 6.6 -0.822 1.95563411712646 1 1 -1 1
lala 11 0.15 first first 15 1 205 8 7.115001 0.666727781295776 0 1 1 0
lala 6 0.3 second second 19 1 206 8 7.340001 1.27784705162048 0.25 1 1 1
lala 7 0.6 second second 31 1 207 8 5.240001 0.511170148849487 2 1 1 1
lala 4 1.2 first first 10 1 208 8 6.48 1.58896231651306 -0.25 0 1 0
lala 8 0.15 second first 6 1 209 8 6.63 0.200054883956909 -0.5 0 -1 1
lala 9 0.15 first first 6 1 210 8 6.78 0.644505262374878 -0.5 0 1 1
lala 5 0.6 second first 18 1 211 8 5.880001 0.18894362449646 0.25 0 -1 0
lala 11 0.3 first second 16 1 212 6.6 7.356 1.28895831108093 0.25 0 -1 0
lala 5 0.6 second first 10 1 213 8 5.880001 0.233388662338257 -0.25 0 -1 0
lala 11 0.3 second first 2 1 214 8 7.079999 1.28895831108093 -1 0 -1 1
lala 12 0.0375 first second 3 1 215 8 7.4525 3.15565013885498 -1 1 -1 1
lala 8 0.6 second first 31 1 216 8 4.640001 0.444502592086792 2 1 -1 0
lala 6 0.3 second first 28 1 217 6.6 5.256 0.522281408309937 2 0 -1 1
lala 3 1.2 second second 17 1 218 6.6 8.778 1.02228808403015 0.25 1 1 0
lala 7 1.2 second first 5 1 219 6.6 5.178 0.311167478561401 -0.5 1 -1 1
lala 9 0.3 second second 11 1 220 8 4.940001 0.944509267807007 -0.25 1 1 1
lala 10 0.075 first first 24 1 221 6.6 7.131 0.822285413742065 1 0 1 1
lala 10 0.15 second second 22 1 222 8 6.03 0.566726446151733 0.5 0 1 0
lala 12 0.15 second first 2 1 223 8 7.229999 2.34452819824219 -1 0 -1 1
lala 5 0.6 first first 21 1 224 6.6 6.978 2.8223123550415 0.5 1 1 0
lala 7 0.3 second second 20 1 225 6.6 5.556 1.44451594352722 0.5 0 1 1
lala 6 0.3 first first 10 1 226 8 6.180001 2.92231369018555 -0.25 0 1 0
lala 8 0.15 first first 20 1 227 6.6 5.406 1.21117949485779 0.5 0 1 0
lala 3 1.2 second second 27 1 228 8 8.240001 0.711172819137573 1 1 1 0
lala 9 0.0375 first second 30 1 229 8 4.4925 0.655616521835327 2 0 -1 0
lala 10 0.15 second first 11 1 230 8 4.790001 2.83342361450195 -0.25 1 -1 0
lala 9 0.15 first first 20 1 231 6.6 5.256 1.81118774414063 0.5 0 1 1
lala 5 0.6 second first 8 1 232 6.6 4.956 0.211166143417358 -0.25 0 -1 0
lala 7 0.3 first second 28 1 233 6.6 5.556 1.38895964622498 2 0 -1 0
lala 11 0.075 first first 0 1 234 6.6 6.905999 0.688950300216675 -1 0 1 1
lala 6 2.4 first first 1 1 235 6.6 3.978 1.34451460838318 -1 1 1 0
lala 12 0.0375 first first 0 1 236 6.6 6.868499 2.73342227935791 -1 0 1 1
lala 4 1.2 second second 27 1 237 8 7.040001 0.433391332626343 1 1 1 1
lala 8 0.3 second second 28 1 238 6.6 5.856 0.90006422996521 2 0 1 1
lala 7 0.6 second second 13 1 239 6.6 5.778 2.66675472259521 0 1 1 1
lala 12 0.3 first first 15 1 240 8 6.815001 1.0111768245697 0 1 1 1
lala 5 2.4 first second 23 1 241 8 4.640001 0.855619192123413 0.5 1 -1 1
lala 5 2.4 second first 27 1 242 8 4.640001 0.100053548812866 1 1 -1 0
lala 9 0.3 first second 31 1 243 8 4.940001 0.533392667770386 2 1 -1 0
lala 7 0.3 second second 29 1 244 6.6 6.678 0.311167478561401 2 1 1 0
lala 13 0.6 first first 15 1 245 8 6.215001 5.22136688232422E-05 0 1 1 1
lala 13 0.0375 first first 3 1 246 8 7.49 1.25562453269959 -1 1 1 1
lala 6 1.2 first first 23 1 247 8 5.840001 0.566726446151733 0.5 1 1 1
lala 8 2.4 first second 25 1 248 6.6 1.578 2.42230701446533 1 1 -1 1
lala 6 1.2 first first 27 1 249 8 5.840001 6.02235555648804 1 1 1 1
lala 6 0.6 first first 21 1 250 6.6 6.378 4.08899593353271 0.5 1 1 1
lala 14 1.2 first second 15 1 251 8 5.015001 1.12228941917419 0 1 -1 0
lala 6 0.3 second first 18 1 252 8 6.180001 0.522281408309937 0.25 0 -1 0
lala 11 0.15 first first 22 1 253 8 5.88 0.233388662338257 0.5 0 1 0
lala 8 0.3 second second 29 1 254 6.6 6.378 0.322278738021851 2 1 1 0
lala 12 0.15 first first 16 1 255 6.6 7.506 0.555615186691284 0.25 0 1 1
lala 7 0.6 first first 23 1 256 8 5.240001 1.13340067863464 0.5 1 1 0
lala 11 0.075 second first 11 1 257 8 4.865001 5.22136688232422E-05 -0.25 1 -1 0
lala 8 1.2 first second 13 1 258 6.6 4.578 0.3333899974823 0 1 -1 1
lala 7 4.8 second first 1 1 259 6.6 -0.822 0.100053548812866 -1 1 -1 1
lala 13 0.15 first first 2 1 260 8 7.379999 0.522281408309937 -1 0 1 0
lala 14 0.075 second second 2 1 261 8 7.304999 0.622282743453979 -1 0 1 0
lala 10 0.075 first first 6 1 262 8 6.705 0.177832365036011 -0.5 0 1 0
lala 8 1.2 second first 5 1 263 6.6 6.378 0.711172819137573 -0.5 1 -1 1
lala 12 0.0375 first second 4 1 264 6.6 5.7435 0.433391332626343 -0.5 0 -1 0
lala 9 0.3 second second 29 1 265 6.6 6.078 0.722284078598022 2 1 1 1
lala 7 0.3 second second 19 1 266 8 7.04 1.47784972190857 0.25 1 1 0
lala 14 0.01875 first first 3 1 267 8 7.47125 0.766729116439819 -1 1 1 0
lala 13 0.0375 second second 4 1 268 6.6 5.781 0.388946294784546 -0.5 0 1 0
lala 9 2.4 second second 9 1 269 6.6 4.577999 0.588948965072632 -0.25 1 1 0
lala 9 2.4 first first 25 1 270 6.6 3.978 0.366723775863647 1 1 1 1
lala 13 0.0375 first first 0 1 271 6.6 6.830999 0.61117148399353 -1 0 1 1
lala 10 0.6 second second 29 1 272 6.6 5.478 0.366723775863647 2 1 1 1
lala 10 0.3 first first 31 1 273 8 5.240002 3.42232036590576 2 1 1 0
lala 5 1.2 first second 12 1 274 6.6 4.356 0.61117148399353 0 0 -1 1
lala 8 0.6 second second 23 1 275 8 4.640001 0.311167478561401 0.5 1 1 0
lala 13 0.075 second second 16 1 276 6.6 7.431 0.744506597518921 0.25 0 1 1
lala 10 0.0375 first second 30 1 277 8 4.53 0.422280073165894 2 0 -1 0
lala 7 0.3 second second 18 1 278 8 6.480001 0.411168813705444 0.25 0 1 1
lala 11 0.0375 second first 30 1 279 8 4.5675 1.0556218624115 2 0 -1 1
lala 14 0.0375 second first 0 1 280 6.6 6.793499 0.800062894821167 -1 0 -1 1
lala 12 0.075 second first 11 1 281 8 4.940001 0.422280073165894 -0.25 1 -1 0
lala 15 0.01875 second second 0 1 282 6.6 6.81225 0.300056219100952 -1 0 1 0
lala 6 0.6 first second 12 1 283 6.6 4.956 0.366723775863647 0 0 -1 0
lala 11 0.075 second second 6 1 284 8 6.630001 0.18894362449646 -0.5 0 1 1
lala 15 0.01875 second second 3 1 285 8 7.4525 0.266722440719604 -1 1 1 1
lala 10 1.2 second first 25 1 286 6.6 2.778 0.46672511100769 1 1 -1 0
lala 8 0.3 second second 19 1 287 8 6.74 1.0778443813324 0.25 1 1 1
lala 9 0.6 second first 23 1 288 8 4.040001 1.00006556510925 0.5 1 -1 1
lala 12 0.15 first second 22 1 289 8 5.73 0.566726446151733 0.5 0 -1 0
lala 10 4.8 first second 9 1 290 6.6 -0.2220016 1.44451594352722 -0.25 1 -1 1
lala 7 0.6 second first 21 1 291 6.6 5.778 1.18895697593689 0.5 1 -1 1
lala 16 0.01875 second first 3 1 292 8 7.43375 0.788951635360718 -1 1 -1 0
lala 12 0.075 second first 6 1 293 8 6.555001 1.72229766845703 -0.5 0 -1 1
lala 14 0.01875 second second 4 1 294 6.6 5.762249 2.933424949646 -0.5 0 1 0
lala 11 0.15 first second 31 1 295 8 5.090002 0.344501256942749 2 1 -1 1
lala 13 0.075 second first 22 1 296 8 5.805 2.80008983612061 0.5 0 -1 0
lala 7 0.15 first second 10 1 297 8 6.030001 0.800062894821167 -0.25 0 -1 0
lala 12 0.075 second first 31 1 298 8 5.165001 1.13340067863464 2 1 -1 0
lala 6 0.6 first second 26 1 299 8 5.280001 0.522281408309937 1 0 -1 1
lala 13 0.0375 second second 6 1 300 8 6.592501 1.63340759277344 -0.5 0 1 0
lala 17 0.009375 first first 3 1 301 8 7.443125 2.15563678741455 -1 1 1 0
lala 16 0.009375 second second 0 1 302 6.6 6.802875 1.25562453269959 -1 0 1 1
lala 14 0.075 second second 16 1 303 6.6 7.356 1.20006823539734 0.25 0 1 0
lala 7 0.6 first second 12 1 304 6.6 5.556 0.511170148849487 0 0 -1 1
lala 13 0.075 first second 31 1 305 8 5.240001 0.511170148849487 2 1 -1 0
lala 8 2.4 second first 1 1 306 6.6 1.578 0.622282743453979 -1 1 -1 1
lala 13 0.075 second first 11 1 307 8 5.015001 0.555615186691284 -0.25 1 -1 0
lala 9 0.6 first second 13 1 308 6.6 5.178 0.355612516403198 0 1 -1 1
lala 10 0.6 second second 13 1 309 6.6 5.778 0.46672511100769 0 1 1 1
lala 11 2.4 second first 9 1 310 6.6 2.177999 0.511170148849487 -0.25 1 -1 0
lala 10 0.15 first first 20 1 311 6.6 5.106 1.52229475975037 0.5 0 1 0
lala 11 0.3 second first 13 1 312 6.6 5.478 213.667855739594 0 1 -1 0
lala 7 0.6 first first 14 1 313 8 5.88 1.93341159820557 0 0 1 1
lala 18 0.0046875 second first 3 1 314 8 7.438437 2.42230701446533 -1 1 -1 0
lala 15 0.075 second second 16 1 315 6.6 7.281001 0.355612516403198 0.25 0 1 1
lala 7 0.6 second second 26 1 316 8 5.880001 1.63340759277344 1 0 1 0
lala 8 0.3 first second 14 1 317 8 5.579999 0.90006422996521 0 0 -1 1
lala 8 0.6 second first 12 1 318 6.6 6.156 1.28895831108093 0 0 -1 1
lala 8 0.3 first first 21 1 319 6.6 6.078001 2.67786598205566 0.5 1 1 1
lala 6 0.3 second second 8 1 320 6.6 5.256 4.62233638763428 -0.25 0 1 1
lala 15 0.01875 first second 4 1 321 6.6 5.743499 0.300056219100952 -0.5 0 -1 0
lala 8 0.075 second second 10 1 322 8 6.105 1.50007224082947 -0.25 0 1 1
lala 4 1.2 second first 7 1 323 8 9.440001 2.9112024307251 -0.5 1 -1 1
lala 11 0.3 first second 20 1 324 6.6 4.806 0.433391332626343 0.5 0 -1 1
lala 11 1.2 second second 29 1 325 6.6 4.278 0.488947629928589 2 1 1 0
lala 8 0.15 first first 18 1 326 8 6.330001 0.200054883956909 0.25 0 1 1
lala 14 0.01875 second second 6 1 327 8 6.57375 0.122276067733765 -0.5 0 1 1
lala 9 0.15 first first 18 1 328 8 6.180001 0.0111634731292725 0.25 0 1 1
lala 15 0.6 first first 15 1 329 8 5.615001 1.51118350028992 0 1 1 0
lala 9 2.4 first first 5 1 330 6.6 8.778 5.22136688232422E-05 -0.5 1 1 1
lala 12 2.4 second first 29 1 331 6.6 1.878 0.733395338058472 2 1 -1 0
lala 9 0.0375 first second 10 1 332 8 6.067501 2.04452419281006 -0.25 0 -1 1
lala 9 0.15 second first 21 1 333 6.6 5.928 0.46672511100769 0.5 1 -1 0
lala 9 2.4 second first 1 1 334 6.6 3.978 1.46673846244812 -1 1 -1 1
lala 10 0.15 second first 18 1 335 8 6.030001 0.700061559677124 0.25 0 -1 1
lala 16 0.009375 first second 4 1 336 6.6 5.752874 3.15565013885498 -0.5 0 -1 0
lala 9 1.2 second second 12 1 337 6.6 7.356 0.200054883956909 0 0 1 0
lala 10 2.4 second second 1 1 338 6.6 6.378 0.18894362449646 -1 1 1 0
lala 10 1.2 first first 5 1 339 6.6 7.578 0.111164808273315 -0.5 1 1 1
lala 12 2.4 second first 9 1 340 6.6 4.577999 0.166721105575562 -0.25 1 -1 1
lala 10 0.6 second second 12 1 341 6.6 6.756 0.588948965072632 0 0 1 0
lala 17 0.009375 first first 0 1 342 6.6 6.793499 0.0667197704315186 -1 0 1 1
lala 14 0.15 second first 11 1 343 8 5.165001 0.633394002914429 -0.25 1 -1 1
lala 13 1.2 first second 29 1 344 6.6 3.078 0.344501256942749 2 1 -1 1
lala 7 0.6 second first 27 1 345 8 5.240001 0.177832365036011 1 1 -1 0
lala 15 0.01875 first first 6 1 346 8 6.555 0.266722440719604 -0.5 0 1 0
lala 7 0.15 second second 8 1 347 6.6 5.106 0.255611181259155 -0.25 0 1 0
lala 11 0.075 second second 18 1 348 8 6.105 0.122276067733765 0.25 0 1 1
lala 12 0.15 first first 20 1 349 6.6 4.956 0.3333899974823 0.5 0 1 1
lala 11 0.6 first first 12 1 350 6.6 6.156 0.988954305648804 0 0 1 0
lala 9 0.6 first first 19 1 351 8 6.14 1.68896389007568 0.25 1 1 0
lala 14 0.075 second second 22 1 352 8 5.88 0.222277402877808 0.5 0 1 1
lala 10 0.075 first first 21 1 353 6.6 6.003 0.0111634731292725 0.5 1 1 1
lala 11 0.6 first second 25 1 354 6.6 3.378 0.622282743453979 1 1 -1 1
lala 10 0.01875 second first 10 1 355 8 6.086251 2.20008182525635 -0.25 0 -1 0
lala 11 1.2 first second 1 1 356 6.6 5.178 0.233388662338257 -1 1 -1 0
lala 14 0.075 second second 31 1 357 8 5.315001 0.166721105575562 2 1 1 1
lala 13 2.4 first first 9 1 358 6.6 6.977999 3.83343696594238 -0.25 1 1 0
lala 15 0.0375 first first 22 1 359 8 5.8425 0.211166143417358 0.5 0 1 1
lala 17 0.009375 second second 4 1 360 6.6 5.762249 0.18894362449646 -0.5 0 1 0
lala 8 0.15 second first 8 1 361 6.6 4.956 0.344501256942749 -0.25 0 -1 1
lala 8 0.3 first second 27 1 362 8 5.540001 0.3333899974823 1 1 -1 0
lala 11 0.01875 first first 10 1 363 8 6.105001 5.22136688232422E-05 -0.25 0 1 0
lala 9 0.15 second first 14 1 364 8 5.73 0.166721105575562 0 0 -1 1
lala 15 0.0375 first second 31 1 365 8 5.277501 0.100053548812866 2 1 -1 0
lala 14 1.2 second first 29 1 366 6.6 4.278 0.0111634731292725 2 1 -1 0
lala 16 0.3 first second 15 1 367 8 5.315001 0.411168813705444 0 1 -1 1
lala 5 0.6 first first 7 1 368 8 10.04 0.122276067733765 -0.5 1 1 0
lala 8 0.3 second first 26 1 369 8 5.58 0.3333899974823 1 0 -1 0
lala 15 1.2 second second 29 1 370 6.6 5.478 2.15563678741455 2 1 1 1
lala 9 0.075 second first 8 1 371 6.6 5.031 0.822285413742065 -0.25 0 -1 1
lala 6 0.3 second second 7 1 372 8 9.740001 0.377835035324097 -0.5 1 1 1
lala 12 0.15 second first 13 1 373 6.6 5.628 0.400057554244995 0 1 -1 0
lala 13 0.075 second first 20 1 374 6.6 4.881 0.300056219100952 0.5 0 -1 1
lala 13 0.15 first first 13 1 375 6.6 5.778 1.0111768245697 0 1 1 1
lala 19 0.00234375 second second 3 1 376 8 7.440781 1.22229075431824 -1 1 1 0
lala 16 0.6 first second 29 1 377 6.6 4.878 0.244499921798706 2 1 -1 1
lala 16 0.01875 first second 31 1 378 8 5.296251 0.388946294784546 2 1 -1 1
lala 11 1.2 second second 5 1 379 6.6 6.378 0.200054883956909 -0.5 1 1 0
lala 10 0.075 second first 8 1 380 6.6 5.105999 0.288944959640503 -0.25 0 -1 0
lala 12 1.2 second first 5 1 381 6.6 5.178 0.244499921798706 -0.5 1 -1 0
lala 14 0.0375 second first 20 1 382 6.6 4.9185 0.533392667770386 0.5 0 -1 0
lala 12 0.009375 first second 10 1 383 8 6.095626 0.61117148399353 -0.25 0 -1 1
lala 16 0.0375 first second 22 1 384 8 5.805 1.06673312187195 0.5 0 -1 0
lala 18 0.0046875 first second 4 1 385 6.6 5.757562 0.411168813705444 -0.5 0 -1 1
lala 10 1.2 first second 19 1 386 8 4.940001 0.500058889389038 0.25 1 -1 1
lala 11 0.075 second first 24 1 387 6.6 7.056 0.244499921798706 1 0 -1 1
lala 12 0.6 second first 25 1 388 6.6 3.978 1.27784705162048 1 1 -1 1
lala 11 0.075 first second 8 1 389 6.6 5.180999 5.22136688232422E-05 -0.25 0 -1 0
lala 13 0.0046875 first second 10 1 390 8 6.100313 0.311167478561401 -0.25 0 -1 0
lala 14 1.2 second first 9 1 391 6.6 5.777999 9.3335108757019 -0.25 1 -1 0
lala 13 0.6 first first 5 1 392 6.6 5.778 2.13341426849365 -0.5 1 1 0
lala 9 0.15 second first 28 1 393 6.6 5.706 0.200054883956909 2 0 -1 1
lala 12 0.6 first second 12 1 394 6.6 5.556 3.14453887939453 0 0 -1 1
lala 15 0.0375 second first 20 1 395 6.6 4.956 0.366723775863647 0.5 0 -1 0
lala 9 0.15 first second 26 1 396 8 5.73 0.277833700180054 1 0 -1 1
lala 12 0.075 second first 30 1 397 8 4.642499 0.0556085109710693 2 0 -1 1
lala 11 0.0375 first first 21 1 398 6.6 5.9655 0.577837705612183 0.5 1 1 1
lala 17 0.01875 second first 31 1 399 8 5.315001 5.22136688232422E-05 2 1 -1 0
lala 13 0.15 first second 30 1 400 8 4.7925 4.46677875518799 2 0 -1 0
lala 19 0.00234375 first second 4 1 401 6.6 5.759906 2.1223030090332 -0.5 0 -1 1
lala 13 0.3 second first 12 1 402 6.6 5.856 0.566726446151733 0 0 -1 0
lala 14 0.0046875 second first 10 1 403 8 6.105 0.788951635360718 -0.25 0 -1 1
lala 16 0.15 first first 16 1 404 6.6 7.131001 2.97786998748779 0.25 0 1 1
lala 4 1.2 second second 17 1 405 6.6 7.578 1.06673312187195 0.25 1 1 0
lala 17 0.15 first second 15 1 406 8 5.465001 0.288944959640503 0 1 -1 0
lala 10 0.075 first first 28 1 407 6.6 5.781 0.500058889389038 2 0 1 0
lala 12 0.6 first first 1 1 408 6.6 5.778 0.666727781295776 -1 1 1 0
lala 15 0.6 first second 9 1 409 6.6 6.377999 0.566726446151733 -0.25 1 -1 1
lala 20 0.00234375 first first 4 1 410 6.6 5.762249 1.24451327323914 -0.5 0 1 0
lala 17 0.3 first first 29 1 411 6.6 5.178 0.766729116439819 2 1 1 1
lala 14 0.3 second second 12 1 412 6.6 6.156001 0.566726446151733 0 0 1 0
lala 10 0.15 second second 26 1 413 8 5.880001 1.58896231651306 1 0 1 0
lala 18 0.01875 first second 31 1 414 8 5.333752 2.24452686309814 2 1 -1 0
lala 10 0.15 second second 14 1 415 8 5.88 0.522281408309937 0 0 1 0
lala 16 0.01875 first first 6 1 416 8 6.53625 0.633394002914429 -0.5 0 1 0
lala 15 0.0046875 first first 10 1 417 8 6.109688 0.811174154281616 -0.25 0 1 0
lala 12 0.0375 first second 21 1 418 6.6 5.928 0.500058889389038 0.5 1 -1 0
lala 18 0.15 first second 15 1 419 8 5.615001 0.255611181259155 0 1 -1 0
lala 7 0.3 second second 7 1 420 8 9.440001 0.155609846115112 -0.5 1 1 0
lala 13 0.01875 first second 21 1 421 6.6 5.946751 0.355612516403198 0.5 1 -1 0
lala 16 0.6 second second 9 1 422 6.6 6.977999 0.155609846115112 -0.25 1 1 1
lala 14 0.01875 first first 21 1 423 6.6 5.965501 0.211166143417358 0.5 1 1 0
lala 14 0.3 first second 5 1 424 6.6 5.478 0.222277402877808 -0.5 1 -1 1
lala 14 0.3 first second 30 1 425 8 5.0925 0.3333899974823 2 0 -1 1
lala 5 2.4 first second 17 1 426 6.6 5.178 0.300056219100952 0.25 1 -1 1
lala 16 0.0375 second first 20 1 427 6.6 4.9935 0.311167478561401 0.5 0 -1 0
lala 19 0.15 second second 15 1 428 8 5.765001 0.833396673202515 0 1 1 1
lala 11 0.075 second second 26 1 429 8 5.805001 1.55562853813171 1 0 1 0
lala 14 0.075 first first 13 1 430 6.6 5.703 0.3333899974823 0 1 1 1
lala 15 0.15 second first 5 1 431 6.6 5.628 0.155609846115112 -0.5 1 -1 1
lala 18 0.009375 second first 0 1 432 6.6 6.784124 1.36673712730408 -1 0 -1 0
lala 20 0.001171875 second second 3 1 433 8 7.439609 1.02228808403015 -1 1 1 0
lala 13 0.3 first second 1 1 434 6.6 5.478 0.966731786727905 -1 1 -1 1
lala 15 0.075 second second 2 1 435 8 7.23 1.81118774414063 -1 0 1 0
lala 16 0.00234375 second first 10 1 436 8 6.107344 0.322278738021851 -0.25 0 -1 1
lala 19 0.0046875 first first 0 1 437 6.6 6.788812 0.355612516403198 -1 0 1 1
lala 17 0.01875 first first 22 1 438 8 5.82375 0.700061559677124 0.5 0 1 1
lala 17 0.001171875 second first 10 1 439 8 6.108516 0.222277402877808 -0.25 0 -1 0
lala 16 0.075 first first 2 1 440 8 7.155 0.122276067733765 -1 0 1 0
lala 18 0.15 second first 29 1 441 6.6 5.028 0.344501256942749 2 1 -1 0
lala 11 0.0375 first first 28 1 442 6.6 5.7435 0.0222747325897217 2 0 1 0
lala 12 0.0375 second second 24 1 443 6.6 7.0935 2.15563678741455 1 0 1 1
lala 17 0.075 second first 20 1 444 6.6 5.0685 -2.40000009536743 0.5 0 -1 0
lala 17 0.15 second second 2 1 445 8 7.005 0.0778310298919678 -1 0 1 1
lala 20 0.075 first second 15 1 446 8 5.690001 0.300056219100952 0 1 -1 0
lala 9 0.3 first second 27 1 447 8 5.840002 0.788951635360718 1 1 -1 1
lala 15 0.009375 second second 21 1 448 6.6 5.956126 0.088942289352417 0.5 1 1 0
lala 18 0.009375 first first 22 1 449 8 5.814375 5.22136688232422E-05 0.5 0 1 0
lala 21 0.001171875 first first 3 1 450 8 7.438437 1.54451727867126 -1 1 1 1
lala 19 0.0375 first second 31 1 451 8 5.371252 0.200054883956909 2 1 -1 0
lala 21 0.0375 first first 15 1 452 8 5.727501 5.22136688232422E-05 0 1 1 0
lala 19 0.009375 second first 22 1 453 8 5.805 0.166721105575562 0.5 0 -1 0
lala 13 0.01875 second second 24 1 454 6.6 7.074749 0.300056219100952 1 0 1 1
lala 11 0.6 first second 19 1 455 8 5.54 0.422280073165894 0.25 1 -1 0
lala 14 0.15 second second 1 1 456 6.6 5.628 0.911175489425659 -1 1 1 1
lala 11 0.075 first second 14 1 457 8 5.805 0.177832365036011 0 0 -1 1
lala 18 0.15 second second 20 1 458 6.6 5.2185 1.51118350028992 0.5 0 1 0
lala 12 0.075 first second 26 1 459 8 5.730001 0.288944959640503 1 0 -1 0
lala 18 0.001171875 second second 10 1 460 8 6.109688 8.32238626480103 -0.25 0 1 0
lala 15 0.075 first first 1 1 461 6.6 5.553 1.38895964622498 -1 1 1 1
lala 12 0.0375 first first 14 1 462 8 5.8425 5.22136688232422E-05 0 0 1 1
lala 10 0.3 second first 23 1 463 8 4.340002 0.244499921798706 0.5 1 -1 1
lala 17 0.3 first first 9 1 464 6.6 6.677999 0.3333899974823 -0.25 1 1 1
lala 12 0.0375 first second 18 1 465 8 6.067501 0.47783637046814 0.25 0 -1 0
lala 14 0.01875 first first 24 1 466 6.6 7.055999 5.22136688232422E-05 1 0 1 0
lala 15 0.075 second second 13 1 467 6.6 5.628 0.46672511100769 0 1 1 1
lala 16 0.075 first second 1 1 468 6.6 5.478001 0.311167478561401 -1 1 -1 1
lala 15 0.15 second second 12 1 469 6.6 6.006001 0.955620527267456 0 0 1 0
lala 11 0.3 first second 23 1 470 8 4.640002 0.322278738021851 0.5 1 -1 1
lala 13 0.01875 second second 14 1 471 8 5.82375 0.544503927230835 0 0 1 0
lala 17 0.3 second second 16 1 472 6.6 6.831 0.400057554244995 0.25 0 1 1
lala 22 0.01875 second second 15 1 473 8 5.708751 2.52230834960938 0 1 1 0
lala 20 0.00234375 second first 0 1 475 6.6 6.786468 0.46672511100769 -1 0 -1 0
lala 17 0.0375 first first 1 1 476 6.6 5.515501 0.0667197704315186 -1 1 1 0
lala 21 0.001171875 second first 4 1 477 6.6 5.761077 0.366723775863647 -0.5 0 -1 0
lala 16 0.15 first second 5 1 478 6.6 5.778 2.71119976043701 -0.5 1 -1 1
lala 6 1.2 second second 17 1 479 6.6 6.378 0.166721105575562 0.25 1 1 1
lala 20 0.075 second first 31 1 480 8 5.446251 0.288944959640503 2 1 -1 0
lala 19 0.0005859375 first first 10 1 481 8 6.109102 0.277833700180054 -0.25 0 1 1
lala 21 0.15 second second 31 1 482 8 5.596251 0.222277402877808 2 1 1 1
lala 16 0.15 first first 12 1 483 6.6 5.856 0.211166143417358 0 0 1 0
lala 15 0.3 second first 11 1 484 8 5.465001 0.288944959640503 -0.25 1 -1 0
lala 12 0.0375 first first 28 1 485 6.6 5.706 0.244499921798706 2 0 1 0
lala 20 0.0005859375 second second 10 1 486 8 6.108516 0.411168813705444 -0.25 0 1 1
lala 18 0.6 second second 16 1 487 6.6 6.231 0.311167478561401 0.25 0 1 1
lala 12 0.15 first second 8 1 488 6.6 5.330999 0.522281408309937 -0.25 0 -1 1
lala 7 0.6 second second 17 1 489 6.6 5.778 0.255611181259155 0.25 1 1 1
lala 19 1.2 first second 16 1 490 6.6 5.031 1.02228808403015 0.25 0 -1 0
lala 12 0.3 second first 23 1 491 8 4.940002 0.244499921798706 0.5 1 -1 1
lala 23 0.01875 first first 15 1 493 8 5.690001 0.377835035324097 0 1 1 0
lala 13 0.0375 first second 26 1 494 8 5.767501 0.244499921798706 1 0 -1 0
lala 17 0.15 second second 5 1 495 6.6 5.928 0.244499921798706 -0.5 1 1 1
lala 15 0.6 first first 30 1 496 8 5.6925 5.22136688232422E-05 2 0 1 1
lala 14 0.01875 first first 14 1 497 8 5.804999 0.400057554244995 0 0 1 1
lala 16 0.3 second first 30 1 498 8 5.392499 0.322278738021851 2 0 -1 0
lala 16 0.009375 first first 21 1 499 6.6 5.946751 5.22136688232422E-05 0.5 1 1 0
lala 17 0.15 second first 30 1 500 8 5.5425 0.222277402877808 2 0 -1 0
lala 18 0.15 second second 30 1 501 8 5.6925 1.13340067863464 2 0 1 0
lala 19 0.075 first second 29 1 502 6.6 5.103 0.622282743453979 2 1 -1 0
lala 18 0.075 second second 5 1 503 6.6 5.853001 1.13340067863464 -0.5 1 1 0
lala 19 0.075 second first 30 1 504 8 5.6175 0.355612516403198 2 0 -1 1
lala 13 0.6 second first 25 1 505 6.6 4.578 1.32229208946228 1 1 -1 1
lala 13 0.3 second second 8 1 507 6.6 5.631 1.15562319755554 -0.25 0 1 1
lala 13 0.6 second first 23 1 508 8 5.540002 1.47784972190857 0.5 1 -1 0
lala 20 0.075 second second 29 1 509 6.6 5.177999 0.277833700180054 2 1 1 0
lala 21 0.0005859375 second first 10 1 510 8 6.10793 0.255611181259155 -0.25 0 -1 0
lala 20 0.0375 second second 30 1 511 8 5.655 1.76674270629883 2 0 1 0
lala 22 0.075 first second 31 1 512 8 5.521252 0.344501256942749 2 1 -1 1
lala 17 0.0375 first first 6 1 513 8 6.49875 0.122276067733765 -0.5 0 1 1
lala 20 0.0046875 second second 22 1 514 8 5.809687 0.411168813705444 0.5 0 1 0
lala 12 0.6 second second 19 1 515 8 6.14 0.911175489425659 0.25 1 1 0
lala 15 0.01875 first first 24 1 516 6.6 7.037249 0.0667197704315186 1 0 1 0
lala 17 0.009375 second second 21 1 517 6.6 5.937376 0.133387327194214 0.5 1 1 0
lala 17 0.15 first first 12 1 518 6.6 5.706 0.588948965072632 0 0 1 1
lala 8 0.6 second second 17 1 519 6.6 5.178 0.966731786727905 0.25 1 1 1
lala 13 0.0375 second second 28 1 520 6.6 5.6685 0.677839040756226 2 0 1 1
lala 15 0.01875 second second 14 1 521 8 5.786249 0.47783637046814 0 0 1 0
lala 14 1.2 first second 25 1 522 6.6 5.778 0.288944959640503 1 1 -1 1
lala 14 0.15 first first 8 1 523 6.6 5.480999 0.844507932662964 -0.25 0 1 0
lala 10 0.3 first first 27 1 524 8 6.140002 0.177832365036011 1 1 1 1
lala 24 0.01875 second second 15 1 525 8 5.671251 0.133387327194214 0 1 1 1
lala 23 0.0375 second second 31 1 526 8 5.558752 1.41118216514587 2 1 1 0
lala 14 1.2 second second 23 1 527 8 6.740002 0.377835035324097 0.5 1 1 0
lala 18 0.01875 first first 21 1 528 6.6 5.918625 0.622282743453979 0.5 1 1 1
lala 11 0.15 second second 27 1 529 8 5.990002 0.144498586654663 1 1 1 1
lala 16 0.075 second second 13 1 530 6.6 5.553 0.422280073165894 0 1 1 0
lala 15 2.4 first first 25 1 532 6.6 8.177999 5.22136688232422E-05 1 1 1 1
lala 12 0.15 second second 27 1 533 8 5.840002 1.42229342460632 1 1 1 1
lala 13 0.3 second first 19 1 534 8 5.84 0.433391332626343 0.25 1 -1 1
lala 19 0.075 second second 5 1 535 6.6 5.778001 1.42229342460632 -0.5 1 1 1
lala 21 0.0375 first first 29 1 537 6.6 5.1405 0.555615186691284 2 1 1 0
lala 13 0.01875 second second 18 1 538 8 6.086251 0.233388662338257 0.25 0 1 1
lala 20 0.075 second second 5 1 539 6.6 5.703001 0.988954305648804 -0.5 1 1 1
lala 16 0.0375 second second 24 1 540 6.6 6.999749 0.222277402877808 1 0 1 1
lala 21 0.01875 first first 30 1 541 8 5.63625 0.200054883956909 2 0 1 0
lala 13 0.15 first first 27 1 542 8 5.690001 1.0111768245697 1 1 1 1
lala 20 0.6 second second 16 1 543 6.6 5.631 2.81120109558105 0.25 0 1 1
lala 24 0.01875 first second 31 1 544 8 5.540001 0.300056219100952 2 1 -1 0
lala 25 0.009375 second first 31 1 545 8 5.549376 0.177832365036011 2 1 -1 0
lala 14 0.3 second second 27 1 546 8 5.390001 0.944509267807007 1 1 1 1
lala 21 0.00234375 second second 22 1 547 8 5.807343 1.1000669002533 0.5 0 1 1
lala 22 0.00234375 second first 22 1 548 8 5.805 0.811174154281616 0.5 0 -1 1
lala 18 0.01875 second first 1 1 549 6.6 5.49675 0.488947629928589 -1 1 -1 1
lala 26 0.009375 second first 31 1 551 8 5.558752 0.455613851547241 2 1 -1 1
lala 18 0.075 second second 6 1 552 8 6.42375 0.166721105575562 -0.5 0 1 0
lala 18 0.3 second second 9 1 553 6.6 6.377998 0.666727781295776 -0.25 1 1 1
lala 14 0.009375 first first 18 1 554 8 6.076876 0.888952970504761 0.25 0 1 1
lala 19 0.0375 second second 21 1 555 6.6 5.881125 0.155609846115112 0.5 1 1 1
lala 15 0.6 first second 27 1 556 8 4.790001 0.311167478561401 1 1 -1 1
lala 19 0.3 second first 9 1 557 6.6 6.077998 0.255611181259155 -0.25 1 -1 0
lala 18 0.3 second second 2 1 559 8 6.704999 0.46672511100769 -1 0 1 1
lala 15 0.15 second second 8 1 560 6.6 5.330999 0.577837705612183 -0.25 0 1 1
lala 14 0.0375 first second 26 1 561 8 5.805001 1.18895697593689 1 0 -1 1
lala 15 0.0375 second second 26 1 562 8 5.842501 0.144498586654663 1 0 1 0
lala 20 0.15 second second 9 1 563 6.6 6.227998 0.211166143417358 -0.25 1 1 1
lala 21 0.001171875 first first 0 1 565 6.6 6.78764 0.511170148849487 -1 0 1 0
lala 19 0.15 second second 6 1 566 8 6.27375 0.822285413742065 -0.5 0 1 0
lala 19 0.6 second second 2 1 567 8 6.105 0.3333899974823 -1 0 1 0
lala 16 0.0375 first first 14 1 568 8 5.748749 0.288944959640503 0 0 1 0
lala 27 0.009375 first second 31 1 569 8 5.568127 0.700061559677124 2 1 -1 0
lala 16 0.3 second first 27 1 570 8 5.090002 1.16673445701599 1 1 -1 1
lala 17 0.075 second second 14 1 571 8 5.673749 0.933398008346558 0 0 1 0
lala 15 0.009375 first second 18 1 572 8 6.067501 0.46672511100769 0.25 0 -1 1
lala 16 0.01875 second first 26 1 573 8 5.82375 0.47783637046814 1 0 -1 1
lala 21 0.15 second second 5 1 574 6.6 5.553001 1.63340759277344 -0.5 1 1 0
lala 14 0.075 first first 28 1 576 6.6 5.593501 0.90006422996521 2 0 1 1
lala 20 0.3 second second 6 1 577 8 5.97375 0.0444972515106201 -0.5 0 1 0
lala 19 0.009375 first second 1 1 578 6.6 5.506125 148.572640895844 -1 1 -1 0
lala 22 0.3 second first 5 1 579 6.6 5.253001 5.22136688232422E-05 -0.5 1 -1 0
lala 19 0.075 first second 20 1 582 6.6 5.1435 0.311167478561401 0.5 0 -1 1
lala 25 0.0375 first first 15 1 583 8 5.633751 1.06673312187195 0 1 1 0
lala 16 1.2 second first 25 1 584 6.6 6.978 0.0667197704315186 1 1 -1 0
lala 21 0.6 second first 6 1 585 8 5.37375 0.3333899974823 -0.5 0 -1 0
lala 18 0.15 first first 14 1 588 8 5.523749 0.366723775863647 0 0 1 1
lala 20 0.075 second second 21 1 590 6.6 5.806126 0.544503927230835 0.5 1 1 1
lala 9 0.6 first second 17 1 592 6.6 4.578001 0.300056219100952 0.25 1 -1 0
lala 21 0.15 second first 21 1 593 6.6 5.656126 0.366723775863647 0.5 1 -1 0
lala 22 0.075 second second 21 1 594 6.6 5.731125 0.866730451583862 0.5 1 1 0
lala 18 0.3 second second 12 1 595 6.6 5.406 2.65564346313477 0 0 1 0
lala 20 1.2 second first 2 1 597 8 4.905 0.222277402877808 -1 0 -1 1
lala 15 0.15 first second 28 1 598 6.6 5.443501 1.44451594352722 2 0 -1 0
lala 21 0.6 second first 2 1 599 8 5.505 1.35562586784363 -1 0 -1 1
lala 22 0.01875 first second 30 1 600 8 5.617499 0.866730451583862 2 0 -1 1
lala 20 0.009375 second first 1 1 601 6.6 5.515501 0.777840375900269 -1 1 -1 1
lala 23 0.009375 first second 30 1 602 8 5.626874 1.87785530090332 2 0 -1 1
lala 17 0.075 second second 24 1 604 6.6 6.924749 0.155609846115112 1 0 1 0
lala 17 0.15 first first 13 1 605 6.6 5.403 2.24452686309814 0 1 1 1
lala 20 0.0375 second first 20 1 606 6.6 5.181 1.88896656036377 0.5 0 -1 0
lala 21 0.0375 second second 20 1 607 6.6 5.2185 1.02228808403015 0.5 0 1 0
lala 17 0.3 first first 27 1 608 8 5.390002 0.455613851547241 1 1 1 1
lala 22 0.3 second second 6 1 609 8 5.67375 0.211166143417358 -0.5 0 1 1
lala 19 0.6 first first 12 1 610 6.6 4.806 0.3333899974823 0 0 1 1
lala 14 0.15 second second 19 1 611 8 5.99 0.0667197704315186 0.25 1 1 0
lala 17 0.6 first first 25 1 612 6.6 7.578 1.72229766845703 1 1 1 1
lala 18 0.3 second second 25 1 613 6.6 7.277999 0.144498586654663 1 1 1 1
lala 19 0.3 second first 14 1 614 8 5.223749 0.300056219100952 0 0 -1 0
lala 18 0.15 second second 24 1 615 6.6 6.774749 1.00006556510925 1 0 1 1
lala 23 0.15 second first 5 1 617 6.6 5.403001 1.48896098136902 -0.5 1 -1 0
lala 10 0.3 first second 17 1 619 6.6 4.878001 0.577837705612183 0.25 1 -1 1
lala 16 0.075 second second 28 1 620 6.6 5.5185 0.700061559677124 2 0 1 0
lala 24 0.15 second first 5 1 621 6.6 5.553001 0.633394002914429 -0.5 1 -1 0
lala 20 1.2 first second 12 1 622 6.6 3.606 0.544503927230835 0 0 -1 1
lala 25 0.15 second first 5 1 623 6.6 5.703001 0.444502592086792 -0.5 1 -1 0
lala 15 0.075 second second 19 1 624 8 5.915 0.733395338058472 0.25 1 1 1
lala 18 0.15 second second 27 1 625 8 5.240002 0.155609846115112 1 1 1 0
lala 26 0.3 first second 5 1 626 6.6 6.003001 0.61117148399353 -0.5 1 -1 1
lala 21 0.075 second second 9 1 628 6.6 6.152998 0.088942289352417 -0.25 1 1 0
lala 21 0.3 first second 16 1 630 6.6 5.331 0.577837705612183 0.25 0 -1 0
lala 19 0.15 second first 27 1 632 8 5.090002 0.388946294784546 1 1 -1 1
lala 17 0.0375 second first 28 1 633 6.6 5.481 0.266722440719604 2 0 -1 1
lala 21 0.6 first second 12 1 634 6.6 4.206 0.133387327194214 0 0 -1 1
lala 16 0.075 first first 19 1 635 8 5.840001 0.444502592086792 0.25 1 1 1
lala 27 0.6 first first 5 1 636 6.6 6.603001 1.55562853813171 -0.5 1 1 1
lala 16 0.0046875 first first 18 1 637 8 6.072188 1.83341026306152 0.25 0 1 1
lala 19 0.3 second second 25 1 638 6.6 6.977999 0.655616521835327 1 1 1 0
lala 24 0.009375 second first 30 1 639 8 5.63625 1.47784972190857 2 0 -1 0
lala 26 0.075 first second 15 1 640 8 5.558751 0.688950300216675 0 1 -1 1
lala 22 0.15 second first 16 1 641 6.6 5.481 0.666727781295776 0.25 0 -1 1
lala 17 0.075 first second 19 1 642 8 5.765001 0.877841711044312 0.25 1 -1 1
lala 23 0.15 second second 16 1 643 6.6 5.631 1.21117949485779 0.25 0 1 1
lala 18 0.0375 second first 19 1 644 8 5.802501 1.36673712730408 0.25 1 -1 0
lala 17 0.009375 first first 26 1 645 8 5.833126 0.833396673202515 1 0 1 1
lala 22 0.075 first first 9 1 646 6.6 6.077999 1.31118083000183 -0.25 1 1 1
lala 18 0.3 first second 13 1 648 6.6 5.103 1.08895564079285 0 1 -1 0
lala 19 0.3 first first 24 1 650 6.6 6.474749 0.400057554244995 1 0 1 0
lala 18 0.01875 second first 28 1 651 6.6 5.499751 0.400057554244995 2 0 -1 0
lala 23 0.075 first first 9 1 652 6.6 6.002999 1.08895564079285 -0.25 1 1 0
lala 16 0.15 second first 8 1 653 6.6 5.180999 0.18894362449646 -0.25 0 -1 1
lala 17 0.00234375 second second 18 1 654 8 6.069844 1.0778443813324 0.25 0 1 0
lala 23 0.0375 first second 21 1 655 6.6 5.693625 0.411168813705444 0.5 1 -1 1
lala 11 0.3 second second 17 1 656 6.6 5.178001 1.1000669002533 0.25 1 1 1
lala 21 0.009375 second first 1 1 657 6.6 5.524876 0.555615186691284 -1 1 -1 0
lala 25 0.009375 second first 30 1 658 8 5.645625 0.388946294784546 2 0 -1 0
lala 20 0.6 second first 24 1 659 6.6 5.874749 0.177832365036011 1 0 -1 1
lala 15 0.6 second second 23 1 660 8 6.140002 0.18894362449646 0.5 1 1 1
lala 16 0.6 second second 23 1 661 8 5.540002 2.81120109558105 0.5 1 1 1
lala 12 0.15 first second 17 1 662 6.6 5.028001 0.200054883956909 0.25 1 -1 0
lala 27 0.0375 second first 15 1 663 8 5.596251 0.266722440719604 0 1 -1 1
lala 19 0.01875 first second 28 1 664 6.6 5.518501 1.32229208946228 2 0 -1 1
lala 24 0.15 second first 9 1 665 6.6 5.852999 1.14451193809509 -0.25 1 -1 1
lala 22 0.0375 first second 29 1 666 6.6 5.103 0.422280073165894 2 1 -1 0
lala 22 0.01875 second first 1 1 668 6.6 5.543626 0.511170148849487 -1 1 -1 0
lala 19 0.15 second first 13 1 669 6.6 5.253 0.588948965072632 0 1 -1 0
lala 26 0.01875 second first 30 1 670 8 5.664375 0.433391332626343 2 0 -1 1
lala 22 0.01875 first second 20 1 671 6.6 5.199749 4.21121978759766 0.5 0 -1 0
lala 20 0.075 second first 27 1 672 8 5.165001 0.61117148399353 1 1 -1 1
lala 23 0.01875 second first 29 1 673 6.6 5.12175 1.12228941917419 2 1 -1 0
lala 16 0.6 second first 11 1 674 8 6.065001 0.822285413742065 -0.25 1 -1 0
lala 17 1.2 second first 11 1 675 8 7.265001 0.322278738021851 -0.25 1 -1 1
lala 24 0.01875 first second 21 1 676 6.6 5.712376 0.500058889389038 0.5 1 -1 1
lala 21 0.075 second first 27 1 677 8 5.240001 0.100053548812866 1 1 -1 0
lala 19 0.0375 second first 19 1 678 8 5.840001 0.266722440719604 0.25 1 -1 1
lala 24 0.075 second first 16 1 679 6.6 5.556 57.160108089447 0.25 0 -1 0
lala 20 0.15 second second 14 1 680 8 5.373749 1.84452152252197 0 0 1 1
lala 13 0.075 second first 17 1 681 6.6 5.103001 0.0778310298919678 0.25 1 -1 1
lala 20 0.0375 second second 19 1 682 8 5.877501 0.222277402877808 0.25 1 1 0
lala 14 0.075 first first 17 1 683 6.6 5.178 0.511170148849487 0.25 1 1 0
lala 18 0.0046875 second second 26 1 684 8 5.828438 0.155609846115112 1 0 1 0
lala 23 0.0375 first second 1 1 685 6.6 5.581126 0.211166143417358 -1 1 -1 1
lala 18 0.00234375 second first 18 1 686 8 6.067501 0.211166143417358 0.25 0 -1 0
lala 17 0.6 second first 23 1 687 8 4.940002 0.444502592086792 0.5 1 -1 1
lala 25 0.075 first first 9 1 689 6.6 5.927999 0.744506597518921 -0.25 1 1 1
lala 25 0.01875 second first 21 1 690 6.6 5.731126 0.988954305648804 0.5 1 -1 1
lala 25 0.0375 second second 16 1 691 6.6 5.5935 0.300056219100952 0.25 0 1 1
lala 8 0.3 first first 7 1 692 8 9.14 0.0556085109710693 -0.5 1 1 1
lala 17 0.075 second first 8 1 693 6.6 5.255999 4.67789268493652 -0.25 0 -1 0
lala 15 0.0375 first second 17 1 694 6.6 5.140501 0.666727781295776 0.25 1 -1 1
lala 27 0.0375 second first 30 1 695 8 5.701875 1.31118083000183 2 0 -1 0
lala 18 0.3 second first 23 1 696 8 5.240002 1.55562853813171 0.5 1 -1 0
lala 18 2.4 second second 11 1 697 8 9.665001 0.566726446151733 -0.25 1 1 0
lala 16 0.01875 second second 17 1 698 6.6 5.159251 0.544503927230835 0.25 1 1 0
lala 18 0.075 second second 8 1 699 6.6 5.330999 0.500058889389038 -0.25 0 1 0
lala 22 0.6 first first 2 1 700 8 6.105 0.61117148399353 -1 0 1 1
lala 19 0.001171875 first first 18 1 701 8 6.068673 1.48896098136902 0.25 0 1 1
lala 20 0.01875 second first 28 1 702 6.6 5.537251 0.277833700180054 2 0 -1 0
lala 26 0.01875 first second 21 1 704 6.6 5.749876 0.311167478561401 0.5 1 -1 1
lala 22 0.075 second second 27 1 706 8 5.315001 0.18894362449646 1 1 1 0
lala 23 0.0375 second first 27 1 707 8 5.277501 1.87785530090332 1 1 -1 0
lala 21 0.0375 first second 28 1 708 6.6 5.574751 2.26674938201904 2 0 -1 1
lala 24 0.075 second second 1 1 709 6.6 5.656126 5.22136688232422E-05 -1 1 1 1
lala 21 0.01875 second second 19 1 710 8 5.85875 0.311167478561401 0.25 1 1 1
lala 21 0.075 second first 14 1 711 8 5.298749 0.800062894821167 0 0 -1 1
lala 22 0.0375 second second 14 1 712 8 5.336249 1.48896098136902 0 0 1 1
lala 24 0.01875 first first 27 1 713 8 5.296251 0.911175489425659 1 1 1 1
lala 22 0.075 second first 28 1 714 6.6 5.649751 0.211166143417358 2 0 -1 1
lala 24 0.01875 second second 29 1 715 6.6 5.1405 0.222277402877808 2 1 1 0
lala 9 0.6 second second 7 1 716 8 8.54 5.22136688232422E-05 -0.5 1 1 0
lala 23 0.009375 first second 20 1 717 6.6 5.209125 1.22229075431824 0.5 0 -1 1
lala 22 0.01875 second second 19 1 718 8 5.84 1.94452285766602 0.25 1 1 1
lala 20 0.15 first second 13 1 719 6.6 5.403 0.433391332626343 0 1 -1 0
lala 19 0.0046875 second first 26 1 720 8 5.823751 0.255611181259155 1 0 -1 1
lala 19 0.3 second first 23 1 721 8 5.540002 0.255611181259155 0.5 1 -1 1
lala 20 0.00234375 second second 26 1 722 8 5.826095 0.788951635360718 1 0 1 0
lala 25 0.0375 first first 1 1 723 6.6 5.618626 0.688950300216675 -1 1 1 0
lala 22 0.6 second second 12 1 724 6.6 4.806 0.144498586654663 0 0 1 0
lala 27 0.0375 second second 21 1 725 6.6 5.787376 1.0556218624115 0.5 1 1 1
lala 20 0.0005859375 second first 18 1 726 8 6.068087 0.455613851547241 0.25 0 -1 1
lala 20 0.3 first first 25 1 727 6.6 6.677999 0.544503927230835 1 1 1 0
lala 25 0.009375 second second 27 1 728 8 5.286876 0.0333859920501709 1 1 1 1
lala 20 0.3 first first 23 1 729 8 5.840003 0.75561785697937 0.5 1 1 0
lala 21 0.3 first first 24 1 730 6.6 6.174749 0.422280073165894 1 0 1 1
lala 17 0.009375 second first 17 1 731 6.6 5.149876 0.400057554244995 0.25 1 -1 1
lala 26 0.01875 first second 16 1 732 6.6 5.57475 0.844507932662964 0.25 0 -1 1
lala 23 0.3 second first 2 1 733 8 5.804999 0.644505262374878 -1 0 -1 0
lala 24 0.15 first second 2 1 734 8 5.954999 1.13340067863464 -1 0 -1 1
lala 23 0.01875 second first 14 1 735 8 5.317499 0.922286748886108 0 0 -1 0
lala 18 0.0046875 first second 17 1 736 6.6 5.154563 3.00009250640869 0.25 1 -1 0
lala 25 0.15 second first 2 1 737 8 6.105 0.311167478561401 -1 0 -1 0
lala 19 0.0375 first second 8 1 738 6.6 5.293499 0.277833700180054 -0.25 0 -1 0
lala 26 0.009375 second first 27 1 739 8 5.277501 0.133387327194214 1 1 -1 0
lala 10 1.2 first first 7 1 740 8 7.34 0.222277402877808 -0.5 1 1 1
lala 27 0.0046875 second first 27 1 741 8 5.282188 0.411168813705444 1 1 -1 1
lala 21 0.15 first second 23 1 742 8 5.690002 0.3333899974823 0.5 1 -1 0
lala 23 0.01875 second second 19 1 743 8 5.82125 0.344501256942749 0.25 1 1 1
lala 11 2.4 first second 7 1 744 8 4.94 0.155609846115112 -0.5 1 -1 1
lala 12 1.2 second second 7 1 745 8 6.14 5.22136688232422E-05 -0.5 1 1 1
lala 26 0.0375 first first 1 1 746 6.6 5.581126 0.977843046188354 -1 1 1 1
lala 19 1.2 first first 11 1 747 8 8.465001 0.18894362449646 -0.25 1 1 1
lala 24 0.009375 first second 14 1 748 8 5.326874 0.366723775863647 0 0 -1 1
lala 24 0.009375 second second 20 1 749 6.6 5.2185 2.70008850097656 0.5 0 1 0
lala 23 0.3 first second 12 1 750 6.6 4.506 1.52229475975037 0 0 -1 1
lala 27 0.009375 second second 16 1 751 6.6 5.584125 3.6112117767334 0.25 0 1 0
lala 21 0.15 first second 13 1 752 6.6 5.553 0.922286748886108 0 1 -1 0
lala 25 0.009375 first second 29 1 753 6.6 5.131125 0.47783637046814 2 1 -1 0
lala 24 0.0375 second second 19 1 754 8 5.78375 0.155609846115112 0.25 1 1 1
lala 24 0.15 first second 12 1 755 6.6 4.656 0.0556085109710693 0 0 -1 1
lala 25 0.075 second second 19 1 756 8 5.70875 0.377835035324097 0.25 1 1 0
lala 13 0.6 first first 7 1 757 8 5.54 0.0444972515106201 -0.5 1 1 0
lala 26 0.0046875 second first 29 1 758 6.6 5.135812 0.400057554244995 2 1 -1 0
lala 22 0.15 first first 24 1 759 6.6 6.024749 0.288944959640503 1 0 1 1
lala 22 0.3 first first 13 1 760 6.6 5.853001 0.255611181259155 0 1 1 1
lala 20 1.2 second second 11 1 761 8 7.265001 0.366723775863647 -0.25 1 1 1
lala 23 0.15 second second 28 1 762 6.6 5.799751 2.05563545227051 2 0 1 0
lala 24 0.075 second second 28 1 763 6.6 5.724751 1.18895697593689 2 0 1 1
lala 25 0.0046875 first second 20 1 764 6.6 5.213812 0.566726446151733 0.5 0 -1 0
lala 26 0.15 second first 2 1 765 8 6.255 0.322278738021851 -1 0 -1 0
lala 20 0.01875 first first 8 1 766 6.6 5.312249 0.766729116439819 -0.25 0 1 0
lala 26 0.15 second second 19 1 767 8 5.55875 2.8223123550415 0.25 1 1 1
lala 21 0.009375 first second 8 1 768 6.6 5.302874 1.95563411712646 -0.25 0 -1 1
lala 21 0.0002929688 second second 18 1 769 8 6.068379 0.144498586654663 0.25 0 1 0
lala 14 0.6 first second 7 1 770 8 4.940001 0.122276067733765 -0.5 1 -1 1
lala 25 0.15 second first 12 1 771 6.6 4.806 0.211166143417358 0 0 -1 0
lala 23 0.15 first first 6 1 772 8 5.52375 0.18894362449646 -0.5 0 1 0
lala 22 0.075 second second 23 1 773 8 5.765002 138.097421169281 0.5 1 1 0
lala 21 1.2 first second 11 1 774 8 6.065001 0.733395338058472 -0.25 1 -1 0
lala 26 0.15 second second 12 1 775 6.6 4.956 0.222277402877808 0 0 1 0
lala 24 0.15 second first 6 1 776 8 5.37375 0.444502592086792 -0.5 0 -1 0
lala 25 0.075 second second 28 1 777 6.6 5.649751 0.155609846115112 2 0 1 1
lala 21 0.001171875 second first 26 1 778 8 5.824923 3.47787666320801 1 0 -1 0
lala 26 0.075 second second 28 1 779 6.6 5.574751 0.0333859920501709 2 0 1 1
lala 27 0.075 first first 12 1 780 6.6 4.881001 0.111164808273315 0 0 1 0
lala 26 0.0375 first first 9 1 781 6.6 5.890499 0.166721105575562 -0.25 1 1 0
lala 23 0.0375 first first 23 1 782 8 5.727502 0.0556085109710693 0.5 1 1 0
lala 27 0.15 second first 28 1 783 6.6 5.424751 0.988954305648804 2 0 -1 0
lala 27 0.0375 first first 9 1 784 6.6 5.852999 3.57787799835205 -0.25 1 1 1
lala 22 0.6 second second 11 1 785 8 6.665001 0.255611181259155 -0.25 1 1 1
lala 15 0.3 first first 7 1 786 8 5.240001 1.82229900360107 -0.5 1 1 0
lala 25 0.009375 first second 14 1 788 8 5.336249 0.344501256942749 0 0 -1 1
lala 27 0.3 second second 19 1 789 8 5.25875 0.111164808273315 0.25 1 1 0
lala 27 0.0046875 second second 29 1 790 6.6 5.1405 0.677839040756226 2 1 1 1
lala 25 0.075 second second 6 1 791 8 5.44875 1.41118216514587 -0.5 0 1 0
lala 23 0.15 first first 13 1 792 6.6 5.703001 0.988954305648804 0 1 1 0
lala 26 0.0375 first first 6 1 793 8 5.41125 1.0556218624115 -0.5 0 1 0
lala 22 0.0046875 first first 8 1 794 6.6 5.307561 0.744506597518921 -0.25 0 1 1
lala 27 0.3 second first 2 1 795 8 6.555 1.08895564079285 -1 0 -1 1
lala 24 0.0375 first second 23 1 796 8 5.690002 2.13341426849365 0.5 1 -1 1
lala 19 0.0046875 second second 17 1 797 6.6 5.15925 0.255611181259155 0.25 1 1 1
lala 27 0.0375 first first 1 1 798 6.6 5.543626 0.133387327194214 -1 1 1 1
lala 16 0.15 first first 7 1 799 8 5.090001 0.244499921798706 -0.5 1 1 0
lala 25 0.01875 first second 23 1 801 8 5.708753 0.088942289352417 0.5 1 -1 0
lala 26 0.009375 second first 14 1 803 8 5.345624 0.388946294784546 0 0 -1 1
lala 23 0.3 first second 11 1 804 8 6.365001 0.366723775863647 -0.25 1 -1 1
lala 20 0.00234375 second second 17 1 805 6.6 5.156907 0.944509267807007 0.25 1 1 0
lala 23 0.15 first first 24 1 807 6.6 5.874749 0.47783637046814 1 0 1 0
lala 26 0.01875 second first 23 1 808 8 5.727503 1.0333993434906 0.5 1 -1 0
lala 26 0.00234375 second second 20 1 809 6.6 5.216156 1.38895964622498 0.5 0 1 0
lala 27 0.0375 first second 6 1 810 8 5.37375 0.400057554244995 -0.5 0 -1 1
lala 27 0.001171875 second first 20 1 812 6.6 5.214984 2.46675205230713 0.5 0 -1 1
lala 24 0.15 second first 24 1 813 6.6 5.724749 0.588948965072632 1 0 -1 1
lala 25 0.075 first first 24 1 814 6.6 5.799749 0.255611181259155 1 0 1 0
lala 21 0.6 second second 25 1 815 6.6 6.077999 0.100053548812866 1 1 1 0
lala 21 0.00234375 second second 17 1 816 6.6 5.154563 0.322278738021851 0.25 1 1 1
lala 26 0.0375 second second 24 1 817 6.6 5.762249 0.500058889389038 1 0 1 0
lala 24 0.15 first first 13 1 819 6.6 5.553 0.966731786727905 0 1 1 0
lala 27 0.01875 second first 14 1 821 8 5.364375 1.67785263061523 0 0 -1 0
lala 25 0.15 first second 13 1 822 6.6 5.403 3.77788066864014 0 1 -1 0
lala 27 0.01875 second first 23 1 823 8 5.746253 1.32229208946228 0.5 1 -1 0
lala 26 0.075 first second 13 1 825 6.6 5.478 0.366723775863647 0 1 -1 0
lala 27 0.075 first first 13 1 827 6.6 5.553 0.566726446151733 0 1 1 0
lala 24 0.15 first first 11 1 828 8 6.515001 0.100053548812866 -0.25 1 1 0
lala 25 0.075 first first 11 1 829 8 6.440001 0.455613851547241 -0.25 1 1 1
lala 17 0.15 second first 7 1 831 8 4.940001 0.0556085109710693 -0.5 1 -1 1
lala 23 0.00234375 first second 8 1 832 6.6 5.305218 0.300056219100952 -0.25 0 -1 1
lala 26 0.075 second second 11 1 834 8 6.365002 1.26673579216003 -0.25 1 1 0
lala 24 0.001171875 first second 8 1 835 6.6 5.30639 1.12228941917419 -0.25 0 -1 1
lala 27 0.0375 first first 24 1 836 6.6 5.724749 0.155609846115112 1 0 1 0
lala 27 0.075 first first 11 1 837 8 6.290002 0.400057554244995 -0.25 1 1 1
lala 22 1.2 first second 25 1 839 6.6 4.877999 0.633394002914429 1 1 -1 0
lala 23 0.6 second second 25 1 841 6.6 5.477999 0.622282743453979 1 1 1 0
lala 18 0.075 first first 7 1 843 8 5.015 0.522281408309937 -0.5 1 1 0
lala 25 0.001171875 first second 8 1 844 6.6 5.307562 1.21117949485779 -0.25 0 -1 1
lala 19 0.0375 second first 7 1 845 8 4.9775 0.155609846115112 -0.5 1 -1 1
lala 20 0.01875 first second 7 1 846 8 4.996251 0.255611181259155 -0.5 1 -1 1
lala 21 0.01875 second second 7 1 848 8 5.015001 0.255611181259155 -0.5 1 1 0
lala 24 0.3 first first 25 1 849 6.6 5.177999 1.62229633331299 1 1 1 1
lala 22 0.009375 second first 7 1 850 8 5.005626 5.22136688232422E-05 -0.5 1 -1 0
lala 23 0.0046875 second second 7 1 851 8 5.010313 0.377835035324097 -0.5 1 1 1
lala 24 0.00234375 first first 7 1 853 8 5.007969 0.500058889389038 -0.5 1 1 0
lala 25 0.3 second second 25 1 854 6.6 4.877999 4.07788467407227 1 1 1 1
lala 26 0.3 first second 25 1 855 6.6 4.577999 8.27794122695923 1 1 -1 1
lala 25 0.00234375 second first 7 1 857 8 5.005626 0.0111634731292725 -0.5 1 -1 0
lala 27 0.15 second first 25 1 859 6.6 4.727999 0.100053548812866 1 1 -1 0
lala 26 0.001171875 second second 7 1 862 8 5.006798 0.144498586654663 -0.5 1 1 1
