subject PestNr Step_Size_OnTrial Response_Interval Pest_Interval Condition block trial velH velH_Pest Reaction_Time velH_Subject Response_MotionEstimation
lala 1 1.2 second first 2 1 1 -6.6 -4.62 0.639997720718384 -0.25 -1
lala 1 1.2 second second 13 1 2 6.6 8.58 0.899997472763062 0 1
lala 1 1.2 second first 20 1 3 6.6 4.62 0.319998025894165 0.25 -1
lala 1 1.2 first second 14 1 4 8 5.6 0.779997587203979 0 -1
lala 1 1.2 second first 12 1 5 6.6 4.62 0.61999773979187 0 -1
lala 1 1.2 second first 16 1 6 -8 -5.6 0.459997892379761 0.25 -1
lala 2 1.2 second first 2 1 7 -6.6 -5.82 1.43999695777893 -0.25 -1
lala 1 1.2 first second 4 1 8 6.6 4.62 0.61999773979187 -0.25 -1
lala 1 1.2 second first 22 1 9 8 5.6 0.639997720718384 0.25 -1
lala 1 1.2 second second 21 1 10 6.6 8.58 0.559997797012329 0.25 1
lala 1 1.2 first first 8 1 11 -8 -5.6 0.559997797012329 0 1
lala 2 1.2 first second 8 1 12 -8 -4.4 1.21999716758728 0 -1
lala 1 1.2 second first 10 1 13 -6.6 -4.62 0.519997835159302 0 -1
lala 2 1.2 first first 20 1 14 6.6 5.82 0.799997568130493 0.25 1
lala 2 1.2 second second 4 1 15 6.6 5.82 3.55999517440796 -0.25 1
lala 1 1.2 first second 19 1 16 -6.6 -8.58 1.45999693870544 0.25 -1
lala 1 1.2 first second 0 1 17 -8 -5.6 0.699997663497925 -0.25 -1
lala 1 1.2 first first 5 1 18 6.6 8.58 0.439997911453247 -0.25 1
lala 1 1.2 second second 23 1 19 8 10.4 0.479997873306274 0.25 1
lala 2 1.2 second second 12 1 20 6.6 5.82 2.09999656677246 0 1
lala 1 1.2 second first 18 1 21 -6.6 -4.62 0.599997758865356 0.25 -1
lala 1 1.2 second second 1 1 22 -8 -10.4 0.599997758865356 -0.25 1
lala 2 1.2 first first 19 1 23 -6.6 -9.78 0.759997606277466 0.25 1
lala 2 1.2 second second 23 1 24 8 9.2 0.699997663497925 0.25 1
lala 3 1.2 first first 23 1 25 8 8 0.599997758865356 0.25 1
lala 1 1.2 second second 11 1 26 -6.6 -8.58 1.79999685287476 0 1
lala 2 1.2 second second 14 1 27 8 6.8 1.01999735832214 0 1
lala 3 1.2 first second 12 1 28 6.6 4.62 1.11999726295471 0 -1
lala 2 1.2 second second 1 1 29 -8 -9.2 0.61999773979187 -0.25 1
lala 3 1.2 first second 8 1 30 -8 -5.599999 0.939997434616089 0 -1
lala 1 1.2 first first 7 1 31 8 10.4 0.959997415542603 -0.25 1
lala 2 1.2 second second 16 1 32 -8 -6.8 0.439997911453247 0.25 1
lala 3 1.2 first second 14 1 33 8 5.6 1.29999709129334 0 -1
lala 3 1.2 second first 1 1 34 -8 -8 0.879997491836548 -0.25 -1
lala 2 1.2 second second 5 1 35 6.6 7.38 0.899997472763062 -0.25 1
lala 1 1.2 first first 15 1 36 8 10.4 0.419997930526733 0 1
lala 2 1.2 first first 22 1 37 8 6.8 0.819997549057007 0.25 1
lala 1 1.2 first first 3 1 38 -6.6 -8.58 0.379997968673706 -0.25 1
lala 3 1.2 first second 4 1 39 6.6 4.62 0.639997720718384 -0.25 -1
lala 4 1.2 first first 1 1 40 -8 -9.2 0.799997568130493 -0.25 1
lala 3 1.2 first first 2 1 41 -6.6 -7.02 25.5204482078552 -0.25 1
lala 4 1.2 first second 4 1 42 6.6 5.82 0.959997415542603 -0.25 -1
lala 2 1.2 second first 10 1 43 -6.6 -5.82 0.459997892379761 0 -1
lala 2 1.2 first first 3 1 44 -6.6 -7.38 0.579997777938843 -0.25 1
lala 2 1.2 first first 11 1 45 -6.6 -7.38 0.479997873306274 0 1
lala 1 1.2 first first 9 1 46 -8 -10.4 0.379997968673706 0 1
lala 4 1.2 first second 8 1 47 -8 -6.799999 2.71999597549438 0 -1
lala 3 1.2 first first 5 1 48 6.6 6.18 0.819997549057007 -0.25 1
lala 4 1.2 first first 14 1 49 8 6.8 0.759997606277466 0 1
lala 5 0.6 second second 1 1 50 -8 -8.599999 0.499997854232788 -0.25 1
lala 2 1.2 second second 0 1 51 -8 -6.8 0.659997701644897 -0.25 1
lala 2 1.2 first first 13 1 52 6.6 7.38 0.939997434616089 0 1
lala 5 0.6 first first 14 1 53 8 6.2 0.579997777938843 0 1
lala 3 1.2 first first 19 1 54 -6.6 -8.58 0.559997797012329 0.25 1
lala 4 1.2 first first 12 1 55 6.6 5.82 0.419997930526733 0 1
lala 2 1.2 first first 15 1 56 8 9.2 0.61999773979187 0 1
lala 3 1.2 second first 16 1 57 -8 -5.6 1.01999735832214 0.25 -1
lala 3 1.2 first first 15 1 58 8 8 0.939997434616089 0 1
lala 1 1.2 first second 6 1 59 8 5.6 0.659997701644897 -0.25 -1
lala 3 1.2 first second 3 1 60 -6.6 -6.18 1.57999682426453 -0.25 -1
lala 2 1.2 second second 18 1 61 -6.6 -5.82 0.939997434616089 0.25 1
lala 4 1.2 second second 16 1 62 -8 -6.8 0.839997529983521 0.25 1
lala 2 1.2 first first 7 1 63 8 9.2 1.51999688148499 -0.25 1
lala 3 1.2 second first 20 1 64 6.6 4.62 0.539997816085815 0.25 -1
lala 4 1.2 first second 2 1 65 -6.6 -5.82 0.61999773979187 -0.25 -1
lala 3 1.2 second second 10 1 66 -6.6 -7.02 0.459997892379761 0 1
lala 4 1.2 first first 15 1 67 8 6.8 1.25999712944031 0 1
lala 5 2.4 first first 8 1 68 -8 -9.199999 0.599997758865356 0 1
lala 3 1.2 second second 13 1 69 6.6 6.18 0.499997854232788 0 1
lala 6 1.2 first first 8 1 70 -8 -7.999999 0.519997835159302 0 1
lala 2 1.2 first second 6 1 71 8 6.8 0.61999773979187 -0.25 -1
lala 2 1.2 first first 21 1 72 6.6 7.38 0.539997816085815 0.25 1
lala 1 1.2 first first 17 1 73 -8 -10.4 0.439997911453247 0.25 1
lala 4 1.2 second first 13 1 74 6.6 4.98 0.919997453689575 0 -1
lala 4 1.2 first first 3 1 75 -6.6 -7.38 1.41999697685242 -0.25 1
lala 3 1.2 first second 0 1 76 -8 -5.6 0.539997816085815 -0.25 -1
lala 3 1.2 second second 6 1 77 8 8 0.639997720718384 -0.25 1
lala 5 0.6 first first 2 1 78 -6.6 -6.42 0.519997835159302 -0.25 1
lala 5 1.2 second second 4 1 79 6.6 7.02 0.319998025894165 -0.25 1
lala 4 1.2 first first 23 1 80 8 6.8 2.83999586105347 0.25 1
lala 2 1.2 second second 9 1 81 -8 -9.2 0.379997968673706 0 1
lala 5 0.6 first second 3 1 82 -6.6 -6.78 1.15999722480774 -0.25 -1
lala 4 1.2 second second 0 1 83 -8 -6.8 0.39999794960022 -0.25 1
lala 2 1.2 second second 17 1 84 -8 -9.2 0.459997892379761 0.25 1
lala 5 0.6 second first 16 1 85 -8 -6.2 0.639997720718384 0.25 -1
lala 5 2.4 second first 15 1 86 8 4.4 1.17999720573425 0 -1
lala 3 1.2 second second 9 1 87 -8 -8 0.699997663497925 0 1
lala 3 1.2 first second 7 1 88 8 8 0.459997892379761 -0.25 -1
lala 4 1.2 first second 19 1 89 -6.6 -7.38 0.979997396469116 0.25 -1
lala 6 0.3 first first 2 1 90 -6.6 -6.119999 0.859997510910034 -0.25 1
lala 5 0.6 second second 19 1 91 -6.6 -7.98 0.39999794960022 0.25 1
lala 5 2.4 second first 23 1 92 8 4.4 0.879997491836548 0.25 -1
lala 3 1.2 first second 18 1 93 -6.6 -4.62 0.559997797012329 0.25 -1
lala 3 1.2 first first 11 1 94 -6.6 -6.18 0.959997415542603 0 1
lala 6 0.6 first first 1 1 95 -8 -8 0.39999794960022 -0.25 1
lala 7 0.3 second second 2 1 96 -6.6 -5.819999 0.459997892379761 -0.25 1
lala 3 1.2 second first 22 1 97 8 5.6 1.8599967956543 0.25 -1
lala 4 1.2 first second 18 1 98 -6.6 -5.82 1.55999684333801 0.25 -1
lala 5 1.2 first first 18 1 99 -6.6 -7.02 0.599997758865356 0.25 1
lala 6 1.2 second second 23 1 100 8 5.6 0.419997930526733 0.25 1
lala 4 1.2 first first 7 1 101 8 9.2 0.759997606277466 -0.25 1
lala 6 0.3 second second 16 1 102 -8 -6.5 0.699997663497925 0.25 1
lala 7 1.2 second second 8 1 103 -8 -6.799999 0.539997816085815 0 1
lala 4 1.2 second first 10 1 104 -6.6 -5.82 1.97999668121338 0 -1
lala 6 0.6 second first 4 1 105 6.6 6.42 2.17999649047852 -0.25 -1
lala 5 0.6 second second 12 1 106 6.6 5.22 2.65999603271484 0 1
lala 5 0.6 second second 13 1 107 6.6 5.58 0.919997453689575 0 1
lala 4 1.2 second second 9 1 108 -8 -6.8 0.839997529983521 0 1
lala 7 0.15 second first 16 1 109 -8 -6.35 0.759997606277466 0.25 -1
lala 3 1.2 first first 21 1 110 6.6 6.18 1.15999722480774 0.25 1
lala 5 2.4 first second 9 1 111 -8 -4.4 0.439997911453247 0 -1
lala 5 0.6 second second 10 1 112 -6.6 -6.42 0.759997606277466 0 1
lala 4 1.2 second second 6 1 113 8 6.8 1.97999668121338 -0.25 1
lala 6 1.2 second first 9 1 114 -8 -5.6 0.599997758865356 0 -1
lala 7 0.3 first second 4 1 115 6.6 6.72 0.659997701644897 -0.25 -1
lala 6 0.3 second second 3 1 116 -6.6 -7.08 1.61999702453613 -0.25 1
lala 8 0.075 second first 16 1 117 -8 -6.425 0.559997797012329 0.25 -1
lala 4 1.2 second second 22 1 118 8 6.8 0.539997816085815 0.25 1
lala 4 1.2 second first 20 1 119 6.6 5.82 1.03999733924866 0.25 -1
lala 3 1.2 first first 17 1 120 -8 -8 0.539997816085815 0.25 1
lala 7 0.15 first first 3 1 121 -6.6 -6.93 0.799997568130493 -0.25 1
lala 5 0.6 second second 22 1 122 8 6.2 0.339998006820679 0.25 1
lala 4 1.2 first second 11 1 123 -6.6 -4.98 1.0999972820282 0 -1
lala 5 1.2 second first 6 1 124 8 5.6 0.679997682571411 -0.25 -1
lala 4 1.2 second second 17 1 125 -8 -6.8 0.819997549057007 0.25 1
lala 4 1.2 second second 21 1 126 6.6 4.98 1.79999685287476 0.25 1
lala 6 0.6 second second 6 1 127 8 6.2 1.29999709129334 -0.25 1
lala 6 0.3 first second 10 1 128 -6.6 -6.119999 4.45999431610107 0 -1
lala 6 0.6 first second 14 1 129 8 5.6 1.93999671936035 0 -1
lala 6 0.6 first second 12 1 130 6.6 4.62 0.559997797012329 0 -1
lala 4 1.2 second first 5 1 131 6.6 4.98 0.419997930526733 -0.25 -1
lala 8 0.3 first first 2 1 132 -6.6 -5.519999 1.65999698638916 -0.25 1
lala 9 0.6 second second 2 1 133 -6.6 -4.919999 1.67999696731567 -0.25 1
lala 6 0.3 first first 19 1 134 -6.6 -7.68 0.759997606277466 0.25 1
lala 6 0.6 first second 18 1 135 -6.6 -6.42 1.45999693870544 0.25 -1
lala 7 0.6 first first 1 1 136 -8 -7.4 0.939997434616089 -0.25 1
lala 5 0.6 second second 7 1 137 8 8.599999 0.579997777938843 -0.25 1
lala 7 0.3 second first 6 1 138 8 5.9 1.03999733924866 -0.25 -1
lala 6 1.2 first second 15 1 139 8 5.6 0.819997549057007 0 -1
lala 8 0.3 first second 4 1 140 6.6 7.02 2.25999641418457 -0.25 -1
lala 5 0.6 second first 11 1 141 -6.6 -5.58 0.519997835159302 0 -1
lala 6 0.3 second first 13 1 142 6.6 5.28 27.6804976463318 0 -1
lala 7 0.3 first first 19 1 143 -6.6 -7.38 0.679997682571411 0.25 1
lala 6 0.6 first first 7 1 144 8 8 1.15999722480774 -0.25 1
lala 5 1.2 first first 20 1 145 6.6 7.02 0.379997968673706 0.25 1
lala 8 0.15 second second 3 1 146 -6.6 -6.78 0.699997663497925 -0.25 1
lala 9 0.075 second first 16 1 147 -8 -6.5 0.539997816085815 0.25 -1
lala 5 2.4 second first 21 1 148 6.6 2.58 0.759997606277466 0.25 -1
lala 8 1.2 second first 1 1 149 -8 -6.2 0.679997682571411 -0.25 -1
lala 7 0.3 second second 18 1 150 -6.6 -6.72 0.539997816085815 0.25 1
lala 8 0.15 second second 18 1 151 -6.6 -6.57 0.39999794960022 0.25 1
lala 7 0.3 second first 12 1 152 6.6 4.92 1.73999691009521 0 -1
lala 8 0.3 first first 19 1 153 -6.6 -7.079999 2.01999664306641 0.25 1
lala 7 0.15 second second 10 1 154 -6.6 -6.27 0.39999794960022 0 1
lala 7 0.6 second first 7 1 155 8 7.4 0.719997644424438 -0.25 -1
lala 9 0.6 second first 1 1 156 -8 -6.8 1.55999684333801 -0.25 -1
lala 9 0.15 second second 18 1 157 -6.6 -6.42 0.559997797012329 0.25 1
lala 10 1.2 second first 2 1 158 -6.6 -3.719999 1.17999720573425 -0.25 -1
lala 7 0.3 second second 14 1 159 8 5.900001 2.27999639511108 0 1
lala 10 0.075 second second 16 1 160 -8 -6.575 1.15999722480774 0.25 1
lala 8 0.15 first second 14 1 161 8 5.75 0.579997777938843 0 -1
lala 6 0.6 second second 11 1 162 -6.6 -6.18 0.579997777938843 0 1
lala 8 0.3 first first 12 1 163 6.6 5.22 0.579997777938843 0 1
lala 10 0.15 second first 18 1 164 -6.6 -6.27 0.459997892379761 0.25 -1
lala 6 1.2 second first 21 1 165 6.6 3.78 0.319998025894165 0.25 -1
lala 9 0.3 first first 4 1 166 6.6 7.32 36.7407050132751 -0.25 1
lala 9 0.6 first second 19 1 167 -6.6 -6.48 0.499997854232788 0.25 -1
lala 7 1.2 first second 21 1 168 6.6 4.98 0.699997663497925 0.25 -1
lala 7 1.2 second first 15 1 169 8 6.8 0.939997434616089 0 -1
lala 7 0.3 second first 11 1 170 -6.6 -5.88 0.559997797012329 0 -1
lala 7 0.6 second second 23 1 171 8 5 0.839997529983521 0.25 1
lala 10 0.3 second second 19 1 172 -6.6 -6.78 0.319998025894165 0.25 1
lala 9 0.15 first first 3 1 173 -6.6 -6.63 0.979997396469116 -0.25 1
lala 10 0.6 second second 1 1 174 -8 -7.4 0.319998025894165 -0.25 1
lala 11 0.3 second second 1 1 175 -8 -7.099999 0.579997777938843 -0.25 1
lala 7 1.2 first first 9 1 176 -8 -6.8 65.9005522727966 0 1
lala 5 2.4 second first 17 1 177 -8 -4.4 0.23999810218811 0.25 -1
lala 6 0.6 second first 22 1 178 8 5.6 0.279998064041138 0.25 -1
lala 9 0.15 first second 12 1 179 6.6 5.07 0.339998006820679 0 -1
lala 7 0.15 second second 13 1 180 6.6 5.43 0.279998064041138 0 1
lala 8 1.2 first first 15 1 181 8 8 0.319998025894165 0 1
lala 9 0.075 second first 14 1 182 8 5.825 0.359997987747192 0 -1
lala 5 0.6 first second 0 1 183 -8 -6.2 0.939997434616089 -0.25 -1
lala 10 0.15 first first 4 1 184 6.6 7.17 0.839997529983521 -0.25 1
lala 7 0.3 second second 22 1 185 8 5.900001 0.319998025894165 0.25 1
lala 8 0.075 first first 10 1 186 -6.6 -6.195 0.779997587203979 0 1
lala 8 0.15 first first 6 1 187 8 6.05 0.659997701644897 -0.25 1
lala 6 1.2 first second 17 1 188 -8 -5.6 0.639997720718384 0.25 -1
lala 8 1.2 second second 21 1 189 6.6 6.18 0.299998044967651 0.25 1
lala 8 1.2 first first 8 1 190 -8 -5.599999 0.259998083114624 0 1
lala 10 0.3 second second 3 1 191 -6.6 -6.33 0.359997987747192 -0.25 1
lala 11 0.6 second first 2 1 192 -6.6 -4.319999 0.459997892379761 -0.25 -1
lala 6 0.6 second second 20 1 193 6.6 6.42 1.75999689102173 0.25 1
lala 8 0.15 second second 11 1 194 -6.6 -6.03 0.559997797012329 0 1
lala 7 1.2 second second 17 1 195 -8 -6.8 0.379997968673706 0.25 1
lala 8 0.6 first second 23 1 196 8 4.400001 0.779997587203979 0.25 -1
lala 9 0.6 second second 21 1 197 6.6 5.58 0.419997930526733 0.25 1
lala 11 0.0375 second second 16 1 198 -8 -6.5375 0.639997720718384 0.25 1
lala 5 0.6 first second 5 1 199 6.6 5.58 1.11999726295471 -0.25 -1
lala 9 0.6 first first 15 1 200 8 7.4 0.479997873306274 0 1
lala 10 0.6 first second 21 1 201 6.6 4.98 0.659997701644897 0.25 -1
lala 11 0.3 second first 21 1 202 6.6 5.280001 0.959997415542603 0.25 -1
lala 8 0.6 first first 9 1 203 -8 -6.2 0.899997472763062 0 1
lala 6 0.3 first first 0 1 204 -8 -6.5 1.37999701499939 -0.25 1
lala 9 2.4 second first 8 1 205 -8 -3.199999 0.279998064041138 0 -1
lala 11 0.15 first second 4 1 206 6.6 7.02 0.919997453689575 -0.25 -1
lala 10 0.075 first first 14 1 207 8 5.9 0.519997835159302 0 1
lala 9 0.075 second second 11 1 208 -6.6 -5.955 0.379997968673706 0 1
lala 11 0.6 first second 3 1 209 -6.6 -5.73 2.25999641418457 -0.25 -1
lala 12 0.075 first first 4 1 210 6.6 7.095 1.5399968624115 -0.25 1
lala 9 0.6 second first 9 1 211 -8 -5.6 0.99999737739563 0 -1
lala 10 0.3 second first 9 1 212 -8 -5.900001 0.559997797012329 0 -1
lala 8 0.075 first second 13 1 213 6.6 5.355 0.739997625350952 0 -1
lala 6 0.6 second first 5 1 214 6.6 6.18 0.779997587203979 -0.25 -1
lala 10 0.6 first first 15 1 215 8 6.8 1.43999695777893 0 1
lala 9 0.0375 first first 13 1 216 6.6 5.3925 0.559997797012329 0 1
lala 13 0.0375 second first 4 1 217 6.6 7.0575 0.799997568130493 -0.25 -1
lala 10 0.075 first first 12 1 218 6.6 5.145 0.979997396469116 0 1
lala 12 0.3 second second 1 1 219 -8 -6.799999 0.559997797012329 -0.25 1
lala 12 0.0375 second second 16 1 220 -8 -6.5 0.659997701644897 0.25 1
lala 7 0.6 second first 20 1 221 6.6 5.82 0.659997701644897 0.25 -1
lala 11 0.3 second second 9 1 222 -8 -6.200001 0.379997968673706 0 1
lala 13 0.0375 first first 16 1 223 -8 -6.4625 1.0999972820282 0.25 1
lala 13 0.3 second second 1 1 224 -8 -6.499999 0.499997854232788 -0.25 1
lala 12 0.15 second first 9 1 225 -8 -6.050001 0.379997968673706 0 -1
lala 10 0.01875 first second 13 1 226 6.6 5.37375 0.359997987747192 0 -1
lala 11 0.009375 second first 13 1 227 6.6 5.383125 0.579997777938843 0 -1
lala 12 0.3 first first 21 1 228 6.6 5.580001 0.659997701644897 0.25 1
lala 12 0.009375 second second 13 1 229 6.6 5.3925 0.339998006820679 0 1
lala 13 0.15 first second 21 1 230 6.6 5.430001 0.759997606277466 0.25 -1
lala 14 0.6 second second 1 1 231 -8 -5.899999 0.839997529983521 -0.25 1
lala 11 0.075 first first 18 1 232 -6.6 -6.344999 0.479997873306274 0.25 1
lala 11 0.0375 second first 14 1 233 8 5.8625 0.99999737739563 0 -1
lala 11 0.0375 first second 12 1 234 6.6 5.1075 0.39999794960022 0 -1
lala 11 0.6 second first 15 1 235 8 6.2 0.639997720718384 0 -1
lala 12 0.01875 first second 14 1 236 8 5.88125 0.459997892379761 0 -1
lala 11 0.15 second second 19 1 237 -6.6 -6.63 0.579997777938843 0.25 1
lala 8 0.3 second first 7 1 238 8 7.7 4.89999389648438 -0.25 -1
lala 15 1.2 first second 1 1 239 -8 -4.699999 1.31999707221985 -0.25 -1
lala 13 0.075 first first 9 1 240 -8 -6.125 1.11999726295471 0 1
lala 14 0.075 first first 16 1 241 -8 -6.3875 1.65999698638916 0.25 1
lala 9 0.3 first second 23 1 242 8 4.700001 0.499997854232788 0.25 -1
lala 10 0.075 second second 11 1 243 -6.6 -5.880001 0.459997892379761 0 1
lala 13 0.0046875 first second 13 1 244 6.6 5.387813 0.859997510910034 0 -1
lala 12 0.3 second first 3 1 245 -6.6 -6.03 1.01999735832214 -0.25 -1
lala 13 0.01875 second first 14 1 246 8 5.900001 0.819997549057007 0 -1
lala 8 0.6 second first 17 1 247 -8 -6.2 1.15999722480774 0.25 -1
lala 12 0.01875 first first 12 1 248 6.6 5.12625 0.61999773979187 0 1
lala 9 0.3 second first 7 1 249 8 8 3.35999536514282 -0.25 -1
lala 10 0.3 first second 23 1 250 8 5.000001 3.11999559402466 0.25 -1
lala 12 0.0375 second first 18 1 251 -6.6 -6.307499 0.939997434616089 0.25 -1
lala 16 0.6 second first 1 1 252 -8 -5.299999 0.959997415542603 -0.25 -1
lala 14 0.0375 first first 9 1 253 -8 -6.087501 0.959997415542603 0 1
lala 8 0.3 second second 20 1 254 6.6 6.12 0.419997930526733 0.25 1
lala 14 0.01875 second second 4 1 255 6.6 7.07625 0.639997720718384 -0.25 1
lala 10 1.2 first second 8 1 256 -8 -4.4 0.699997663497925 0 -1
lala 15 0.0375 second second 9 1 257 -8 -6.050001 0.299998044967651 0 1
lala 8 0.15 second second 22 1 258 8 5.75 0.499997854232788 0.25 1
lala 12 0.3 first first 15 1 259 8 6.5 0.459997892379761 0 1
lala 9 0.15 second second 20 1 260 6.6 5.97 0.319998025894165 0.25 1
lala 11 0.075 second second 11 1 261 -6.6 -5.805001 0.339998006820679 0 1
lala 16 0.0375 second second 9 1 262 -8 -6.012501 0.579997777938843 0 1
lala 15 0.15 first first 16 1 263 -8 -6.2375 0.499997854232788 0.25 1
lala 13 0.01875 second second 18 1 264 -6.6 -6.32625 0.39999794960022 0.25 1
lala 17 0.6 second first 1 1 265 -8 -5.899999 1.05999732017517 -0.25 -1
lala 11 0.3 second first 23 1 266 8 5.300001 0.839997529983521 0.25 -1
lala 10 0.15 second second 20 1 267 6.6 5.82 0.819997549057007 0.25 1
lala 12 0.15 first first 11 1 268 -6.6 -5.655001 2.33999633789063 0 1
lala 17 0.075 second second 9 1 269 -8 -5.937501 15.4202170372009 0 1
lala 7 0.6 second first 5 1 270 6.6 6.78 0.879997491836548 -0.25 -1
lala 18 0.6 second second 1 1 271 -8 -6.499999 1.8599967956543 -0.25 1
lala 13 0.3 first second 11 1 272 -6.6 -5.355 1.47999691963196 0 -1
lala 16 0.3 first second 16 1 273 -8 -5.9375 0.919997453689575 0.25 -1
lala 11 0.15 first first 20 1 274 6.6 5.67 1.51999688148499 0.25 1
lala 13 0.3 second second 3 1 275 -6.6 -6.33 0.559997797012329 -0.25 1
lala 14 0.00234375 first first 13 1 276 6.6 5.390157 0.639997720718384 0 1
lala 15 0.009375 first first 4 1 277 6.6 7.066875 0.39999794960022 -0.25 1
lala 14 0.15 second second 3 1 278 -6.6 -6.18 2.21999645233154 -0.25 1
lala 12 0.6 second first 2 1 279 -6.6 -4.919999 0.459997892379761 -0.25 -1
lala 9 0.075 second first 10 1 280 -6.6 -6.12 0.339998006820679 0 -1
lala 9 0.075 second first 6 1 281 8 5.975 1.17999720573425 -0.25 -1
lala 14 0.075 second first 21 1 282 6.6 5.505001 0.539997816085815 0.25 -1
lala 13 0.15 second first 15 1 283 8 6.35 0.939997434616089 0 -1
lala 15 0.075 first second 21 1 284 6.6 5.58 0.759997606277466 0.25 -1
lala 13 0.6 first second 2 1 285 -6.6 -5.519999 0.919997453689575 -0.25 -1
lala 15 0.15 first second 3 1 286 -6.6 -6.03 15.2002120018005 -0.25 -1
lala 16 0.075 second first 21 1 287 6.6 5.655 2.51999616622925 0.25 -1
lala 14 0.075 first second 15 1 288 8 6.425 0.799997568130493 0 -1
lala 11 1.2 first second 8 1 289 -8 -5.599999 0.459997892379761 0 -1
lala 9 0.15 second second 22 1 290 8 5.6 0.299998044967651 0.25 1
lala 13 0.009375 second second 12 1 291 6.6 5.116875 4.51999425888062 0 1
lala 15 0.075 first first 15 1 292 8 6.5 2.37999629974365 0 1
lala 14 0.009375 second second 12 1 293 6.6 5.1075 0.539997816085815 0 1
lala 12 0.3 second second 20 1 294 6.6 5.369999 0.439997911453247 0.25 1
lala 14 0.01875 first second 14 1 295 8 5.918751 1.03999733924866 0 -1
lala 14 1.2 second second 2 1 296 -6.6 -6.719999 0.779997587203979 -0.25 1
lala 10 0.0375 second first 10 1 297 -6.6 -6.1575 1.0999972820282 0 -1
lala 16 0.009375 second second 4 1 298 6.6 7.0575 1.59999680519104 -0.25 1
lala 17 0.15 second first 16 1 299 -8 -6.0875 0.39999794960022 0.25 -1
lala 17 0.15 first first 21 1 300 6.6 5.805 0.419997930526733 0.25 1
lala 7 0.15 second first 0 1 301 -8 -6.35 0.379997968673706 -0.25 -1
lala 8 0.075 second first 0 1 302 -8 -6.425 0.479997873306274 -0.25 -1
lala 12 0.15 second second 19 1 303 -6.6 -6.48 1.11999726295471 0.25 1
lala 10 0.3 second second 7 1 304 8 8.3 0.99999737739563 -0.25 1
lala 15 0.0375 second first 14 1 305 8 5.956251 1.31999707221985 0 -1
lala 16 0.075 second first 14 1 306 8 6.03125 0.559997797012329 0 -1
lala 15 0.001171875 first second 13 1 307 6.6 5.388985 1.31999707221985 0 -1
lala 15 0.009375 second second 12 1 308 6.6 5.098125 0.359997987747192 0 1
lala 11 0.0375 second second 10 1 309 -6.6 -6.195 0.539997816085815 0 1
lala 17 0.15 first second 14 1 310 8 6.181251 0.459997892379761 0 -1
lala 14 0.15 second first 11 1 311 -6.6 -5.505001 0.479997873306274 0 -1
lala 9 0.075 second second 0 1 312 -8 -6.5 0.699997663497925 -0.25 1
lala 18 0.3 first first 14 1 313 8 6.481251 1.07999730110168 0 1
lala 11 0.15 second second 7 1 314 8 8.150001 0.299998044967651 -0.25 1
lala 8 1.2 second second 5 1 315 6.6 7.98 0.539997816085815 -0.25 1
lala 17 0.009375 second second 4 1 316 6.6 7.048125 0.679997682571411 -0.25 1
lala 12 0.6 first second 23 1 317 8 5.900001 1.69999694824219 0.25 -1
lala 14 0.009375 second first 18 1 318 -6.6 -6.316875 0.539997816085815 0.25 -1
lala 16 0.0375 second first 15 1 319 8 6.4625 0.759997606277466 0 -1
lala 10 0.0375 second second 6 1 320 8 6.0125 1.99999666213989 -0.25 1
lala 15 0.15 second first 11 1 321 -6.6 -5.655001 0.299998044967651 0 -1
lala 13 1.2 first first 23 1 322 8 7.100001 0.459997892379761 0.25 1
lala 14 0.6 second second 23 1 323 8 6.500001 0.439997911453247 0.25 1
lala 18 0.15 first second 9 1 324 -8 -5.787501 1.11999726295471 0 -1
lala 18 0.15 first second 16 1 325 -8 -6.2375 0.659997701644897 0.25 -1
lala 16 0.01875 first second 12 1 326 6.6 5.079375 0.39999794960022 0 -1
lala 15 0.0046875 first first 18 1 327 -6.6 -6.321562 1.89999675750732 0.25 1
lala 13 0.6 first second 20 1 328 6.6 4.77 0.499997854232788 0.25 -1
lala 18 0.01875 second first 4 1 329 6.6 7.029375 0.959997415542603 -0.25 -1
lala 16 0.00234375 second second 18 1 330 -6.6 -6.319218 2.01999664306641 0.25 1
lala 17 0.009375 first second 12 1 331 6.6 5.08875 0.519997835159302 0 -1
lala 18 0.009375 second second 12 1 332 6.6 5.098125 1.27999711036682 0 1
lala 10 0.0375 second second 0 1 333 -8 -6.4625 0.659997701644897 -0.25 1
lala 11 0.01875 first second 6 1 334 8 5.99375 2.07999658584595 -0.25 -1
lala 14 0.3 second first 20 1 335 6.6 5.07 1.79999685287476 0.25 -1
lala 15 0.6 second first 23 1 336 8 5.900002 1.25999712944031 0.25 -1
lala 19 0.0046875 second second 12 1 337 6.6 5.093438 0.319998025894165 0 1
lala 19 0.075 second first 9 1 338 -8 -5.862501 3.11999559402466 0 -1
lala 12 1.2 second second 8 1 339 -8 -6.799999 0.359997987747192 0 1
lala 19 0.15 second second 14 1 340 8 6.331251 0.319998025894165 0 1
lala 13 0.15 first first 19 1 341 -6.6 -6.329999 0.839997529983521 0.25 1
lala 11 0.0375 second second 0 1 342 -8 -6.425 0.319998025894165 -0.25 1
lala 19 0.009375 first first 4 1 343 6.6 7.03875 0.639997720718384 -0.25 1
lala 20 0.0046875 second second 4 1 344 6.6 7.034062 0.559997797012329 -0.25 1
lala 9 0.3 second first 17 1 345 -8 -6.5 0.679997682571411 0.25 -1
lala 16 0.075 second first 3 1 346 -6.6 -6.105 0.939997434616089 -0.25 -1
lala 16 0.15 first second 11 1 347 -6.6 -5.805001 0.519997835159302 0 -1
lala 21 0.0046875 second second 4 1 348 6.6 7.029375 0.419997930526733 -0.25 1
lala 16 0.0005859375 second first 13 1 349 6.6 5.389571 1.83999681472778 0 -1
lala 12 0.15 first first 7 1 350 8 8.000001 0.479997873306274 -0.25 1
lala 17 0.01875 second first 15 1 351 8 6.48125 1.11999726295471 0 -1
lala 10 0.15 second first 22 1 352 8 5.45 3.87999486923218 0.25 -1
lala 17 0.0005859375 second first 13 1 353 6.6 5.390157 0.419997930526733 0 -1
lala 20 0.075 second second 9 1 354 -8 -5.9375 0.579997777938843 0 1
lala 19 0.15 second first 16 1 355 -8 -6.3875 0.419997930526733 0.25 -1
lala 13 0.6 second second 8 1 356 -8 -6.199999 1.13999724388123 0 1
lala 15 0.3 first first 20 1 357 6.6 5.37 1.13999724388123 0.25 1
lala 17 0.00234375 second first 18 1 358 -6.6 -6.316875 0.639997720718384 0.25 -1
lala 18 0.0005859375 first second 13 1 359 6.6 5.390743 0.39999794960022 0 -1
lala 10 0.3 second second 17 1 360 -8 -6.800001 0.519997835159302 0.25 1
lala 21 0.0375 first first 9 1 361 -8 -5.900001 0.819997549057007 0 1
lala 9 0.6 second second 5 1 362 6.6 7.380001 0.459997892379761 -0.25 1
lala 15 0.6 second second 2 1 363 -6.6 -6.119999 0.679997682571411 -0.25 1
lala 11 0.15 second second 17 1 364 -8 -6.650001 0.61999773979187 0.25 1
lala 20 0.3 second first 16 1 365 -8 -6.6875 0.479997873306274 0.25 -1
lala 14 0.3 first first 19 1 366 -6.6 -6.029999 0.99999737739563 0.25 1
lala 13 0.15 first first 7 1 367 8 7.850001 0.859997510910034 -0.25 1
lala 19 0.3 second first 1 1 368 -8 -6.199998 0.579997777938843 -0.25 -1
lala 19 0.001171875 second second 13 1 369 6.6 5.391915 0.959997415542603 0 1
lala 16 0.6 first second 2 1 370 -6.6 -5.52 144.074471950531 -0.25 -1
lala 16 0.15 first first 20 1 371 6.6 5.22 0.779997587203979 0.25 1
lala 10 0.6 second first 5 1 372 6.6 6.780001 0.519997835159302 -0.25 -1
lala 12 0.15 second second 17 1 373 -8 -6.5 0.499997854232788 0.25 1
lala 14 0.3 first first 7 1 374 8 7.550001 0.439997911453247 -0.25 1
lala 18 0.075 second first 21 1 375 6.6 5.73 0.299998044967651 0.25 -1
lala 15 0.6 second second 7 1 376 8 6.950001 0.219998121261597 -0.25 1
lala 16 1.2 first second 7 1 377 8 5.750001 1.57999682426453 -0.25 -1
lala 16 0.3 first first 23 1 378 8 6.200002 1.77999687194824 0.25 1
lala 17 0.075 second first 3 1 379 -6.6 -6.18 0.299998044967651 -0.25 -1
lala 14 0.6 first second 8 1 380 -8 -5.599999 0.39999794960022 0 -1
lala 20 0.15 second second 14 1 381 8 6.181251 0.319998025894165 0 1
lala 11 0.3 first first 5 1 382 6.6 7.080001 0.839997529983521 -0.25 1
lala 18 0.01875 second first 15 1 383 8 6.5 1.19999718666077 0 -1
lala 22 0.0046875 second second 4 1 384 6.6 7.024688 0.739997625350952 -0.25 1
lala 17 0.15 second first 23 1 385 8 6.050002 0.639997720718384 0.25 -1
lala 17 0.3 first first 11 1 386 -6.6 -6.105001 0.459997892379761 0 1
lala 13 0.15 second second 17 1 387 -8 -6.35 0.339998006820679 0.25 1
lala 19 0.0375 first first 21 1 388 6.6 5.7675 2.27999639511108 0.25 1
lala 17 0.3 second second 2 1 389 -6.6 -5.82 0.339998006820679 -0.25 1
lala 20 0.15 second first 1 1 390 -8 -6.349998 1.91999673843384 -0.25 -1
lala 20 0.0046875 second first 12 1 391 6.6 5.08875 0.779997587203979 0 -1
lala 11 0.075 second second 22 1 392 8 5.525 0.899997472763062 0.25 1
lala 23 0.009375 first first 4 1 393 6.6 7.015313 0.61999773979187 -0.25 1
lala 18 0.075 first second 23 1 394 8 6.125001 0.519997835159302 0.25 -1
lala 12 0.009375 first second 6 1 395 8 6.003125 0.419997930526733 -0.25 -1
lala 13 0.009375 second first 6 1 396 8 6.0125 0.219998121261597 -0.25 -1
lala 24 0.01875 first first 4 1 397 6.6 6.996562 0.459997892379761 -0.25 1
lala 14 0.009375 second first 6 1 398 8 6.021875 0.599997758865356 -0.25 -1
lala 18 0.15 first first 2 1 399 -6.6 -5.67 0.579997777938843 -0.25 1
lala 21 0.15 second second 14 1 400 8 6.03125 0.219998121261597 0 1
lala 22 0.0375 second second 9 1 401 -8 -5.862501 0.259998083114624 0 1
lala 12 0.01875 second second 10 1 402 -6.6 -6.17625 0.679997682571411 0 1
lala 19 0.01875 second first 15 1 403 8 6.518751 0.379997968673706 0 -1
lala 12 0.0375 second first 0 1 404 -8 -6.3875 0.359997987747192 -0.25 -1
lala 21 0.6 second second 16 1 405 -8 -7.2875 0.339998006820679 0.25 1
lala 12 0.15 first first 5 1 406 6.6 6.930001 0.299998044967651 -0.25 1
lala 21 0.15 second second 1 1 407 -8 -6.499999 1.57999682426453 -0.25 1
lala 13 0.15 second first 5 1 408 6.6 6.780001 1.47999691963196 -0.25 -1
lala 20 0.0375 second second 15 1 409 8 6.556251 0.199998140335083 0 1
lala 19 0.075 first second 23 1 410 8 6.200001 1.17999720573425 0.25 -1
lala 19 0.15 second first 2 1 411 -6.6 -5.52 0.439997911453247 -0.25 -1
lala 23 0.0375 second first 9 1 412 -8 -5.825001 0.39999794960022 0 -1
lala 20 0.075 second first 2 1 413 -6.6 -5.594999 0.319998025894165 -0.25 -1
lala 15 0.6 second first 19 1 414 -6.6 -5.429999 0.0999982357025146 0.25 -1
lala 22 0.3 first second 14 1 415 8 5.73125 0.359997987747192 0 -1
lala 13 0.01875 second first 0 1 416 -8 -6.40625 0.199998140335083 -0.25 -1
lala 24 0.01875 first first 9 1 417 -8 -5.843751 1.29999709129334 0 1
lala 22 0.075 first second 1 1 418 -8 -6.424999 0.699997663497925 -0.25 -1
lala 20 0.01875 second first 21 1 419 6.6 5.74875 0.679997682571411 0.25 -1
lala 21 0.009375 first second 21 1 420 6.6 5.758125 0.639997720718384 0.25 -1
lala 14 0.01875 second second 0 1 421 -8 -6.425001 0.219998121261597 -0.25 1
lala 23 0.0375 first first 1 1 422 -8 -6.462499 0.379997968673706 -0.25 1
lala 21 0.00234375 second first 12 1 423 6.6 5.091094 0.739997625350952 0 -1
lala 15 0.3 second first 8 1 424 -8 -5.9 0.279998064041138 0 -1
lala 18 0.075 second second 3 1 425 -6.6 -6.255 0.799997568130493 -0.25 1
lala 23 0.15 second first 14 1 426 8 5.88125 0.319998025894165 0 -1
lala 21 0.075 second first 2 1 427 -6.6 -5.669999 0.439997911453247 -0.25 -1
lala 22 0.00234375 first second 12 1 428 6.6 5.093438 0.499997854232788 0 -1
lala 17 0.6 first first 7 1 429 8 6.350001 0.699997663497925 -0.25 1
lala 13 0.01875 second second 10 1 430 -6.6 -6.157499 0.279998064041138 0 1
lala 18 0.15 first second 11 1 431 -6.6 -5.955001 0.459997892379761 0 -1
lala 16 0.3 second first 19 1 432 -6.6 -5.73 0.279998064041138 0.25 -1
lala 17 0.15 second first 20 1 433 6.6 5.07 0.539997816085815 0.25 -1
lala 17 0.3 second second 19 1 434 -6.6 -6.03 0.439997911453247 0.25 1
lala 18 0.15 second first 19 1 435 -6.6 -5.88 0.539997816085815 0.25 -1
lala 25 0.009375 second first 9 1 436 -8 -5.834376 0.379997968673706 0 -1
lala 18 0.001171875 second first 18 1 437 -6.6 -6.318047 0.379997968673706 0.25 -1
lala 20 0.0005859375 first second 13 1 438 6.6 5.391329 0.319998025894165 0 -1
lala 26 0.0046875 second second 9 1 439 -8 -5.839063 0.279998064041138 0 1
lala 22 0.3 second first 16 1 440 -8 -6.9875 1.21999716758728 0.25 -1
lala 14 0.3 second second 17 1 441 -8 -6.05 0.419997930526733 0.25 1
lala 25 0.0375 second second 4 1 442 6.6 6.959063 0.779997587203979 -0.25 1
lala 20 0.075 second second 23 1 443 8 6.275001 0.319998025894165 0.25 1
lala 12 0.0375 second first 22 1 444 8 5.4875 1.41999697685242 0.25 -1
lala 22 0.009375 second first 21 1 445 6.6 5.7675 0.359997987747192 0.25 -1
lala 21 0.0002929688 second second 13 1 446 6.6 5.391622 0.659997701644897 0 1
lala 13 0.01875 second first 22 1 447 8 5.50625 1.11999726295471 0.25 -1
lala 14 0.01875 first first 10 1 448 -6.6 -6.138749 0.539997816085815 0 1
lala 23 0.15 second second 16 1 449 -8 -7.1375 0.379997968673706 0.25 1
lala 23 0.00234375 second first 12 1 450 6.6 5.095781 1.43999695777893 0 -1
lala 15 0.01875 second second 6 1 451 8 6.040626 0.299998044967651 -0.25 1
lala 19 0.075 second second 11 1 452 -6.6 -6.030001 2.75999593734741 0 1
lala 22 0.0001464844 first first 13 1 453 6.6 5.391475 0.659997701644897 0 1
lala 21 0.01875 second first 15 1 454 8 6.5375 0.339998006820679 0 -1
lala 15 0.0375 second second 10 1 455 -6.6 -6.101249 0.919997453689575 0 1
lala 23 0.0001464844 first first 13 1 456 6.6 5.391329 0.61999773979187 0 1
lala 20 0.0375 first first 11 1 457 -6.6 -5.992501 0.719997644424438 0 1
lala 18 0.075 second second 20 1 458 6.6 5.145 0.379997968673706 0.25 1
lala 24 0.0046875 first first 12 1 459 6.6 5.100469 0.739997625350952 0 1
lala 22 0.075 second first 2 1 460 -6.6 -5.744999 0.339998006820679 -0.25 -1
lala 16 0.009375 second first 6 1 461 8 6.03125 0.459997892379761 -0.25 -1
lala 15 0.6 first second 17 1 462 -8 -5.45 0.359997987747192 0.25 -1
lala 19 0.075 first second 19 1 463 -6.6 -5.954999 0.39999794960022 0.25 -1
lala 16 0.3 second first 8 1 464 -8 -6.2 0.379997968673706 0 -1
lala 24 0.15 second first 14 1 465 8 6.03125 0.939997434616089 0 -1
lala 19 0.0375 second first 20 1 466 6.6 5.1075 0.359997987747192 0.25 -1
lala 16 0.075 second first 10 1 467 -6.6 -6.026249 0.359997987747192 0 -1
lala 16 0.3 second first 17 1 468 -8 -5.75 0.319998025894165 0.25 -1
lala 24 0.01875 second first 1 1 469 -8 -6.443748 0.459997892379761 -0.25 -1
lala 25 0.009375 second second 1 1 470 -8 -6.453124 0.439997911453247 -0.25 1
lala 14 0.01875 first second 22 1 471 8 5.525001 0.639997720718384 0.25 -1
lala 23 0.009375 second second 21 1 472 6.6 5.776875 0.219998121261597 0.25 1
lala 25 0.00234375 first first 12 1 473 6.6 5.098125 0.799997568130493 0 1
lala 14 0.075 second second 5 1 474 6.6 6.855 0.179998159408569 -0.25 1
lala 17 0.0375 first second 10 1 475 -6.6 -6.063749 0.699997663497925 0 -1
lala 20 0.01875 first second 20 1 476 6.6 5.12625 0.439997911453247 0.25 -1
lala 21 0.01875 second first 20 1 477 6.6 5.145 0.279998064041138 0.25 -1
lala 26 0.0046875 second second 1 1 478 -8 -6.448436 0.39999794960022 -0.25 1
lala 21 0.0375 second second 23 1 479 8 6.237501 0.539997816085815 0.25 1
lala 15 0.01875 second second 22 1 480 8 5.543751 0.359997987747192 0.25 1
lala 22 0.0375 second first 23 1 481 8 6.200001 0.61999773979187 0.25 -1
lala 27 0.00234375 second first 9 1 482 -8 -5.83672 0.539997816085815 0 -1
lala 23 0.15 second first 2 1 483 -6.6 -5.894999 0.839997529983521 -0.25 -1
lala 22 0.01875 second first 20 1 484 6.6 5.16375 0.479997873306274 0.25 -1
lala 24 0.075 second second 16 1 485 -8 -7.0625 0.259998083114624 0.25 1
lala 23 0.0375 second first 20 1 486 6.6 5.20125 0.299998044967651 0.25 -1
lala 19 0.0375 second first 3 1 487 -6.6 -6.2175 0.319998025894165 -0.25 -1
lala 18 0.3 second first 7 1 488 8 6.050001 0.719997644424438 -0.25 -1
lala 26 0.00234375 first second 12 1 489 6.6 5.095781 0.299998044967651 0 -1
lala 15 0.0375 second second 5 1 490 6.6 6.817501 0.299998044967651 -0.25 1
lala 21 0.0375 first second 11 1 491 -6.6 -5.955001 0.579997777938843 0 -1
lala 27 0.0046875 second first 1 1 492 -8 -6.443749 0.299998044967651 -0.25 -1
lala 28 0.001171875 second first 9 1 493 -8 -5.837892 0.419997930526733 0 -1
lala 24 0.0001464844 first first 13 1 494 6.6 5.391182 0.519997835159302 0 1
lala 17 0.0046875 first second 6 1 495 8 6.035938 0.379997968673706 -0.25 -1
lala 28 0.00234375 second first 1 1 496 -8 -6.446093 0.479997873306274 -0.25 -1
lala 22 0.01875 first first 11 1 497 -6.6 -5.973751 0.519997835159302 0 1
lala 22 0.009375 second second 15 1 498 8 6.546875 0.39999794960022 0 1
lala 23 0.009375 second second 11 1 499 -6.6 -5.964376 1.11999726295471 0 1
lala 24 0.075 second first 20 1 500 6.6 5.27625 1.35999703407288 0.25 -1
lala 29 0.001171875 second first 9 1 501 -8 -5.839064 0.279998064041138 0 -1
lala 20 0.075 first second 19 1 502 -6.6 -6.029999 1.41999697685242 0.25 -1
lala 23 0.0046875 second second 15 1 503 8 6.542188 0.23999810218811 0 1
lala 30 0.001171875 first first 9 1 504 -8 -5.840236 0.419997930526733 0 1
lala 23 0.01875 second second 23 1 505 8 6.218751 1.99999666213989 0.25 1
lala 19 0.15 second first 7 1 506 8 6.200001 1.01999735832214 -0.25 -1
lala 27 0.001171875 second first 12 1 507 6.6 5.096953 2.79999589920044 0 -1
lala 31 0.0005859375 second first 9 1 508 -8 -5.83965 0.279998064041138 0 -1
lala 29 0.00234375 second first 1 1 509 -8 -6.448436 1.13999724388123 -0.25 -1
lala 25 0.15 first second 20 1 510 6.6 5.42625 0.499997854232788 0.25 -1
lala 25 0.15 second second 14 1 511 8 6.181251 0.259998083114624 0 1
lala 26 0.3 second second 20 1 512 6.6 5.72625 0.119998216629028 0.25 1
lala 19 0.001171875 second second 18 1 513 -6.6 -6.319219 0.559997797012329 0.25 1
lala 24 0.0046875 second second 15 1 514 8 6.537501 1.19999718666077 0 1
lala 20 0.0005859375 second first 18 1 515 -6.6 -6.318633 0.699997663497925 0.25 -1
lala 24 0.0046875 first second 21 1 516 6.6 5.772188 0.739997625350952 0.25 -1
lala 16 0.009375 first second 22 1 517 8 5.534376 0.479997873306274 0.25 -1
lala 26 0.075 first first 4 1 518 6.6 6.884063 1.25999712944031 -0.25 1
lala 15 0.009375 first first 0 1 519 -8 -6.415626 0.939997434616089 -0.25 1
lala 18 0.0375 second second 10 1 520 -6.6 -6.101249 0.219998121261597 0 1
lala 24 0.009375 second first 23 1 521 8 6.209376 0.579997777938843 0.25 -1
lala 27 0.15 second second 4 1 522 6.6 6.734063 0.539997816085815 -0.25 1
lala 25 0.0002929688 first second 13 1 523 6.6 5.39089 0.479997873306274 0 -1
lala 21 0.075 second first 19 1 524 -6.6 -6.104999 0.359997987747192 0.25 -1
lala 21 0.0002929688 first first 18 1 525 -6.6 -6.318925 0.499997854232788 0.25 1
lala 17 0.3 second first 17 1 526 -8 -6.050001 0.199998140335083 0.25 -1
lala 27 0.15 first first 20 1 527 6.6 5.57625 0.519997835159302 0.25 1
lala 22 0.0001464844 second second 18 1 528 -6.6 -6.318779 0.639997720718384 0.25 1
lala 18 0.0046875 second second 6 1 529 8 6.040625 0.899997472763062 -0.25 1
lala 22 0.15 second first 19 1 530 -6.6 -6.254999 2.65999603271484 0.25 -1
lala 24 0.3 first first 2 1 531 -6.6 -6.194999 0.679997682571411 -0.25 1
lala 25 0.0046875 first first 15 1 532 8 6.532814 0.579997777938843 0 1
lala 23 0.3 second first 19 1 533 -6.6 -6.554999 0.259998083114624 0.25 -1
lala 19 0.00234375 second second 6 1 534 8 6.038281 0.259998083114624 -0.25 1
lala 28 0.3 second first 4 1 535 6.6 6.434062 1.8599967956543 -0.25 -1
lala 20 0.01875 second second 3 1 536 -6.6 -6.23625 3.57999515533447 -0.25 1
lala 28 0.15 second first 20 1 537 6.6 5.42625 0.959997415542603 0.25 -1
lala 23 0.0001464844 first first 18 1 538 -6.6 -6.318633 0.499997854232788 0.25 1
lala 24 0.009375 second first 11 1 539 -6.6 -5.955001 0.279998064041138 0 -1
lala 20 0.00234375 second second 6 1 540 8 6.035938 1.79999685287476 -0.25 1
lala 18 0.3 second second 17 1 541 -8 -6.350001 91.5962386131287 0.25 1
lala 29 0.15 second first 4 1 542 6.6 6.584063 0.779997587203979 -0.25 -1
lala 24 0.0001464844 first second 18 1 543 -6.6 -6.318486 0.719997644424438 0.25 -1
lala 25 0.0046875 first second 23 1 544 8 6.214064 1.07999730110168 0.25 -1
lala 30 0.00234375 first second 1 1 545 -8 -6.45078 0.859997510910034 -0.25 -1
lala 25 0.15 second first 2 1 546 -6.6 -6.044999 0.39999794960022 -0.25 -1
lala 26 0.009375 second first 15 1 547 8 6.523438 0.479997873306274 0 -1
lala 28 0.001171875 first second 12 1 548 6.6 5.098125 0.659997701644897 0 -1
lala 29 0.001171875 second second 12 1 549 6.6 5.099298 0.339998006820679 0 1
lala 19 0.15 second first 17 1 550 -8 -6.200001 0.579997777938843 0.25 -1
lala 26 0.075 first first 14 1 551 8 6.106251 1.03999733924866 0 1
lala 17 0.0046875 first second 22 1 552 8 5.539063 0.779997587203979 0.25 -1
lala 17 0.3 second first 8 1 553 -8 -6.5 0.23999810218811 0 -1
lala 20 0.15 second second 7 1 554 8 6.350001 0.359997987747192 -0.25 1
lala 18 0.6 first first 8 1 555 -8 -7.1 1.29999709129334 0 1
lala 16 0.0375 second second 5 1 556 6.6 6.780001 0.319998025894165 -0.25 1
lala 20 0.075 second second 17 1 557 -8 -6.275001 1.3999969959259 0.25 1
lala 19 0.3 second second 8 1 558 -8 -6.8 0.259998083114624 0 1
lala 21 0.00234375 second first 6 1 559 8 6.033594 0.879997491836548 -0.25 -1
lala 25 0.075 second first 16 1 560 -8 -6.987501 0.419997930526733 0.25 -1
lala 30 0.0005859375 first first 12 1 561 6.6 5.098711 0.39999794960022 0 1
lala 27 0.0046875 second second 15 1 562 8 6.528126 0.319998025894165 0 1
lala 18 0.0046875 second first 22 1 563 8 5.54375 0.479997873306274 0.25 -1
lala 26 0.0046875 second second 23 1 564 8 6.218751 0.339998006820679 0.25 1
lala 26 0.0375 second first 16 1 565 -8 -7.025001 0.939997434616089 0.25 -1
lala 19 0.0046875 first second 22 1 566 8 5.548438 0.939997434616089 0.25 -1
lala 31 0.0005859375 first first 12 1 567 6.6 5.098125 1.21999716758728 0 1
lala 22 0.001171875 second second 6 1 568 8 6.034766 0.119998216629028 -0.25 1
lala 27 0.075 first first 14 1 569 8 6.031251 0.379997968673706 0 1
lala 20 0.009375 first second 22 1 570 8 5.557813 0.499997854232788 0.25 -1
lala 32 0.0002929688 second first 9 1 571 -8 -5.839942 0.179998159408569 0 -1
lala 19 0.01875 second second 10 1 572 -6.6 -6.082499 0.339998006820679 0 1
lala 23 0.0005859375 second first 6 1 573 8 6.03418 0.359997987747192 -0.25 -1
lala 21 0.075 second second 7 1 574 8 6.275001 0.739997625350952 -0.25 1
lala 27 0.00234375 second second 23 1 575 8 6.216407 0.259998083114624 0.25 1
lala 24 0.0002929688 second first 6 1 576 8 6.034473 1.31999707221985 -0.25 -1
lala 16 0.009375 second second 0 1 577 -8 -6.40625 0.299998044967651 -0.25 1
lala 32 0.0005859375 second first 12 1 578 6.6 5.097539 0.499997854232788 0 -1
lala 25 0.0046875 first first 11 1 579 -6.6 -5.959688 1.45999693870544 0 1
lala 25 7.324219E-05 first first 18 1 580 -6.6 -6.31856 0.939997434616089 0.25 1
lala 21 0.009375 first second 3 1 581 -6.6 -6.226875 10.8801140785217 -0.25 -1
lala 28 0.00234375 second first 23 1 582 8 6.214064 0.339998006820679 0.25 -1
lala 33 0.0002929688 second first 9 1 583 -8 -5.840235 0.179998159408569 0 -1
lala 20 0.01875 second second 10 1 584 -6.6 -6.063749 0.259998083114624 0 1
lala 28 0.00234375 first second 15 1 585 8 6.525782 1.75999689102173 0 -1
lala 29 0.001171875 second second 23 1 586 8 6.215236 0.199998140335083 0.25 1
lala 34 0.0002929688 second first 9 1 587 -8 -5.840528 0.639997720718384 0 -1
lala 21 0.0375 second first 17 1 588 -8 -6.237501 0.419997930526733 0.25 -1
lala 17 0.009375 first second 0 1 589 -8 -6.396875 0.379997968673706 -0.25 -1
lala 35 0.0005859375 first second 9 1 590 -8 -5.841114 0.359997987747192 0 -1
lala 24 0.6 first first 19 1 591 -6.6 -7.154999 0.519997835159302 0.25 1
lala 26 0.0001464844 second second 13 1 592 6.6 5.391036 0.359997987747192 0 1
lala 18 0.0046875 second second 0 1 593 -8 -6.401563 0.359997987747192 -0.25 1
lala 22 0.01875 first second 17 1 594 -8 -6.256251 0.579997777938843 0.25 -1
lala 29 0.001171875 first first 15 1 595 8 6.526954 0.599997758865356 0 1
lala 30 0.15 second first 4 1 596 6.6 6.734063 0.299998044967651 -0.25 -1
lala 27 0.0375 first second 16 1 597 -8 -7.0625 0.319998025894165 0.25 -1
lala 33 0.0002929688 first second 12 1 598 6.6 5.097832 0.359997987747192 0 -1
lala 20 0.3 second first 8 1 599 -8 -6.5 0.199998140335083 0 -1
lala 22 0.075 second second 7 1 600 8 6.200001 1.51999688148499 -0.25 1
lala 30 0.0005859375 second second 15 1 601 8 6.526368 0.579997777938843 0 1
lala 31 0.0046875 second first 1 1 602 -8 -6.455467 0.179998159408569 -0.25 -1
lala 21 0.01875 second first 22 1 603 8 5.576563 0.479997873306274 0.25 -1
lala 26 3.66211E-05 first second 18 1 604 -6.6 -6.318523 1.59999680519104 0.25 -1
lala 25 0.00234375 second first 21 1 605 6.6 5.774532 0.499997854232788 0.25 -1
lala 22 0.0046875 second second 3 1 606 -6.6 -6.231562 0.419997930526733 -0.25 1
lala 26 0.00234375 second second 21 1 607 6.6 5.776875 0.439997911453247 0.25 1
lala 36 0.001171875 second second 9 1 608 -8 -5.842286 0.179998159408569 0 1
lala 17 0.0375 first first 5 1 609 6.6 6.742501 0.899997472763062 -0.25 1
lala 26 0.075 second second 2 1 610 -6.6 -6.119999 0.139998197555542 -0.25 1
lala 23 0.01875 first second 17 1 611 -8 -6.275001 0.479997873306274 0.25 -1
lala 29 0.075 first second 20 1 612 6.6 5.50125 0.339998006820679 0.25 -1
lala 27 7.324219E-05 first second 13 1 613 6.6 5.390963 0.23999810218811 0 -1
lala 27 0.0375 second second 2 1 614 -6.6 -6.082499 0.219998121261597 -0.25 1
lala 28 3.66211E-05 second first 13 1 615 6.6 5.390999 0.879997491836548 0 -1
lala 30 0.075 second second 20 1 616 6.6 5.57625 35.5806784629822 0.25 1
lala 28 0.075 second second 14 1 617 8 5.956251 0.319998025894165 0 1
lala 23 0.00234375 first first 3 1 618 -6.6 -6.229218 0.419997930526733 -0.25 1
lala 18 0.075 first first 5 1 619 6.6 6.667501 0.179998159408569 -0.25 1
lala 25 0.3 second second 19 1 620 -6.6 -6.854999 0.299998044967651 0.25 1
lala 19 0.00234375 second second 0 1 621 -8 -6.399219 0.279998064041138 -0.25 1
lala 20 0.00234375 second first 0 1 622 -8 -6.396875 0.199998140335083 -0.25 -1
lala 22 0.0375 first second 22 1 623 8 5.614063 0.419997930526733 0.25 -1
lala 26 0.00234375 second second 11 1 624 -6.6 -5.957345 0.23999810218811 0 1
lala 23 0.075 first second 7 1 625 8 6.125001 0.319998025894165 -0.25 -1
lala 37 0.0005859375 second first 9 1 626 -8 -5.8417 0.119998216629028 0 -1
lala 19 0.15 second second 5 1 627 6.6 6.517501 0.279998064041138 -0.25 1
lala 28 0.0375 first first 2 1 628 -6.6 -6.044999 0.539997816085815 -0.25 1
lala 27 0.001171875 first second 21 1 629 6.6 5.775703 1.23999714851379 0.25 -1
lala 28 0.0375 second first 16 1 630 -8 -7.1 12.3801484107971 0.25 -1
lala 21 0.15 second first 8 1 631 -8 -6.65 0.299998044967651 0 -1
lala 21 0.01875 second second 10 1 632 -6.6 -6.044999 0.159998178482056 0 1
lala 27 0.00234375 second first 11 1 633 -6.6 -5.955001 0.279998064041138 0 -1
lala 23 0.075 second first 22 1 634 8 5.689063 0.299998044967651 0.25 -1
lala 26 0.3 first first 19 1 635 -6.6 -6.554999 1.07999730110168 0.25 1
lala 31 0.0005859375 first second 15 1 636 8 6.525782 0.479997873306274 0 -1
lala 22 0.0375 second second 10 1 637 -6.6 -6.007499 0.259998083114624 0 1
lala 29 0.15 first second 14 1 638 8 5.806251 0.219998121261597 0 -1
lala 34 0.0002929688 second second 12 1 639 6.6 5.098125 0.319998025894165 0 1
lala 30 0.075 second second 14 1 640 8 5.881251 0.219998121261597 0 1
lala 24 0.00234375 first first 3 1 641 -6.6 -6.226875 1.15999722480774 -0.25 1
lala 38 0.0002929688 first second 9 1 642 -8 -5.841993 1.63999700546265 0 -1
lala 24 0.01875 second second 17 1 643 -8 -6.293751 0.219998121261597 0.25 1
lala 28 0.001171875 second second 11 1 644 -6.6 -5.956173 0.219998121261597 0 1
lala 29 0.0005859375 second first 11 1 645 -6.6 -5.955587 1.73999691009521 0 -1
lala 25 0.00234375 first second 3 1 646 -6.6 -6.224531 1.11999726295471 -0.25 -1
lala 32 0.0002929688 second first 15 1 647 8 6.526075 0.459997892379761 0 -1
lala 31 0.15 second second 4 1 648 6.6 6.884063 0.739997625350952 -0.25 1
lala 24 0.0375 second first 7 1 649 8 6.162501 0.379997968673706 -0.25 -1
lala 31 0.0375 second first 20 1 650 6.6 5.53875 0.739997625350952 0.25 -1
lala 25 0.009375 second first 17 1 651 -8 -6.284376 0.979997396469116 0.25 -1
lala 28 0.0005859375 first second 21 1 652 6.6 5.776289 0.839997529983521 0.25 -1
lala 21 0.001171875 second first 0 1 653 -8 -6.398047 0.99999737739563 -0.25 -1
lala 29 0.075 first second 16 1 654 -8 -7.175 0.639997720718384 0.25 -1
lala 29 0.0375 second first 2 1 655 -6.6 -6.007499 1.51999688148499 -0.25 -1
lala 31 0.0375 first first 14 1 656 8 5.843751 0.359997987747192 0 1
lala 24 0.15 first second 22 1 657 8 5.839063 0.339998006820679 0.25 -1
lala 32 0.075 first second 4 1 658 6.6 6.809063 0.61999773979187 -0.25 -1
lala 30 0.15 second second 16 1 659 -8 -7.325 0.339998006820679 0.25 1
lala 22 0.001171875 second second 0 1 660 -8 -6.39922 0.559997797012329 -0.25 1
lala 23 0.0005859375 second first 0 1 661 -8 -6.398633 0.279998064041138 -0.25 -1
lala 32 0.01875 first second 20 1 662 6.6 5.5575 0.61999773979187 0.25 -1
lala 20 0.3 first second 5 1 663 6.6 6.217501 0.61999773979187 -0.25 -1
lala 25 0.0002929688 first second 6 1 664 8 6.034766 0.219998121261597 -0.25 -1
lala 22 0.15 second second 8 1 665 -8 -6.8 0.319998025894165 0 1
lala 33 0.0002929688 first first 15 1 666 8 6.526368 1.41999697685242 0 1
lala 31 0.075 second first 16 1 667 -8 -7.25 2.2999963760376 0.25 -1
lala 33 0.0375 first second 4 1 668 6.6 6.846563 0.479997873306274 -0.25 -1
lala 30 0.0002929688 second first 11 1 669 -6.6 -5.95588 0.419997930526733 0 -1
lala 29 0.0005859375 first first 21 1 670 6.6 5.776875 1.0999972820282 0.25 1
lala 30 0.01875 first second 2 1 671 -6.6 -6.026249 0.639997720718384 -0.25 -1
lala 27 0.3 second first 19 1 672 -6.6 -6.254999 0.259998083114624 0.25 -1
lala 23 0.075 first second 10 1 673 -6.6 -5.932499 0.99999737739563 0 -1
lala 27 1.831055E-05 second second 18 1 674 -6.6 -6.318541 0.259998083114624 0.25 1
lala 26 0.0002929688 second first 6 1 675 8 6.035058 5.47999334335327 -0.25 -1
lala 27 0.0005859375 first second 6 1 676 8 6.035645 0.359997987747192 -0.25 -1
lala 21 0.15 second first 5 1 677 6.6 6.367501 0.23999810218811 -0.25 -1
lala 31 0.0002929688 first second 11 1 678 -6.6 -5.956172 1.49999690055847 0 -1
lala 28 0.001171875 second first 6 1 679 8 6.036817 0.579997777938843 -0.25 -1
lala 26 0.0046875 second first 17 1 680 -8 -6.289063 0.579997777938843 0.25 -1
lala 34 0.0375 first second 4 1 681 6.6 6.884063 0.719997644424438 -0.25 -1
lala 25 0.0375 second first 7 1 682 8 6.200001 0.359997987747192 -0.25 -1
lala 24 0.0375 first first 10 1 683 -6.6 -5.969999 1.19999718666077 0 1
lala 32 0.0375 second second 16 1 684 -8 -7.2875 0.339998006820679 0.25 1
lala 32 0.0375 second first 14 1 685 8 5.806251 0.419997930526733 0 -1
lala 35 0.0001464844 second first 12 1 686 6.6 5.097979 0.359997987747192 0 -1
lala 34 0.0001464844 second second 15 1 687 8 6.526221 0.279998064041138 0 1
lala 33 0.01875 first first 14 1 688 8 5.825001 0.199998140335083 0 1
lala 22 0.15 second second 5 1 689 6.6 6.517501 0.299998044967651 -0.25 1
lala 23 0.075 second first 8 1 690 -8 -6.725 1.01999735832214 0 -1
lala 35 0.0375 first first 4 1 691 6.6 6.921563 1.33999705314636 -0.25 1
lala 27 0.0046875 first first 17 1 692 -8 -6.293751 2.43999624252319 0.25 1
lala 39 0.0002929688 first second 9 1 693 -8 -5.842286 0.379997968673706 0 -1
lala 32 0.009375 second second 1 1 694 -8 -6.464842 0.419997930526733 -0.25 1
lala 35 0.0001464844 second first 15 1 695 8 6.526075 2.55999612808228 0 -1
lala 28 0.00234375 second first 17 1 696 -8 -6.291407 5.19999361038208 0.25 -1
lala 33 0.01875 second second 16 1 697 -8 -7.26875 0.379997968673706 0.25 1
lala 31 0.01875 first first 2 1 698 -6.6 -6.045 0.99999737739563 -0.25 1
lala 36 7.324219E-05 second first 12 1 699 6.6 5.098052 0.519997835159302 0 -1
lala 25 0.3 second first 22 1 700 8 6.139063 0.319998025894165 0.25 -1
lala 32 0.009375 second second 2 1 701 -6.6 -6.035625 0.959997415542603 -0.25 1
lala 29 0.00234375 second first 6 1 702 8 6.03916 0.259998083114624 -0.25 -1
lala 29 0.001171875 second first 17 1 703 -8 -6.292579 0.939997434616089 0.25 -1
lala 26 0.001171875 first first 3 1 704 -6.6 -6.225703 0.839997529983521 -0.25 1
lala 29 3.66211E-05 second first 13 1 705 6.6 5.391036 0.39999794960022 0 -1
lala 32 0.0002929688 second second 11 1 706 -6.6 -5.956465 0.979997396469116 0 1
lala 28 9.155274E-06 second first 18 1 707 -6.6 -6.318532 1.19999718666077 0.25 -1
lala 30 0.0002929688 first second 21 1 708 6.6 5.776583 0.639997720718384 0.25 -1
lala 30 0.0005859375 second first 23 1 709 8 6.21465 0.579997777938843 0.25 -1
lala 33 0.0046875 first second 1 1 710 -8 -6.460155 1.33999705314636 -0.25 -1
lala 30 0.0046875 second first 6 1 711 8 6.043848 0.319998025894165 -0.25 -1
lala 36 0.01875 first first 4 1 712 6.6 6.902812 0.279998064041138 -0.25 1
lala 33 0.0001464844 second first 11 1 713 -6.6 -5.956319 0.319998025894165 0 -1
lala 37 7.324219E-05 second second 12 1 714 6.6 5.098125 0.279998064041138 0 1
lala 36 7.324219E-05 first first 15 1 715 8 6.526148 0.299998044967651 0 1
lala 30 0.001171875 second second 17 1 716 -8 -6.293751 28.640519618988 0.25 1
lala 30 3.66211E-05 second first 13 1 717 6.6 5.391073 0.519997835159302 0 -1
lala 26 0.0375 second first 7 1 718 8 6.237501 0.61999773979187 -0.25 -1
lala 27 0.0005859375 first second 3 1 719 -6.6 -6.225117 0.819997549057007 -0.25 -1
lala 25 0.01875 first first 10 1 720 -6.6 -5.951249 0.659997701644897 0 1
lala 31 0.0005859375 first second 17 1 721 -8 -6.293165 0.759997606277466 0.25 -1
lala 31 0.0002929688 second first 23 1 722 8 6.214942 0.279998064041138 0.25 -1
lala 24 0.0002929688 second second 0 1 723 -8 -6.398926 0.279998064041138 -0.25 1
lala 31 7.324219E-05 second first 13 1 724 6.6 5.391146 0.659997701644897 0 -1
lala 26 0.6 second first 22 1 725 8 6.739063 0.719997644424438 0.25 -1
lala 26 0.01875 first first 10 1 726 -6.6 -5.932498 0.639997720718384 0 1
lala 31 0.009375 second first 6 1 727 8 6.053223 0.419997930526733 -0.25 -1
lala 28 0.15 first second 19 1 728 -6.6 -6.404999 0.519997835159302 0.25 -1
lala 29 0.15 second first 19 1 729 -6.6 -6.554999 0.319998025894165 0.25 -1
lala 32 0.0001464844 first second 13 1 730 6.6 5.391293 0.419997930526733 0 -1
lala 34 7.324219E-05 first first 11 1 731 -6.6 -5.956392 0.339998006820679 0 1
lala 33 0.01875 second first 20 1 732 6.6 5.57625 0.279998064041138 0.25 -1
lala 33 0.0002929688 second second 13 1 733 6.6 5.391585 0.279998064041138 0 1
lala 37 0.01875 second second 4 1 734 6.6 6.884062 0.599997758865356 -0.25 1
lala 25 0.0001464844 second second 0 1 735 -8 -6.39878 0.519997835159302 -0.25 1
lala 34 0.009375 second first 14 1 736 8 5.815626 0.339998006820679 0 -1
lala 32 0.0002929688 second second 17 1 737 -8 -6.293458 0.539997816085815 0.25 1
lala 34 0.01875 second second 20 1 738 6.6 5.595 0.259998083114624 0.25 1
lala 28 0.0002929688 second second 3 1 739 -6.6 -6.22541 0.579997777938843 -0.25 1
lala 33 0.009375 second second 2 1 740 -6.6 -6.026249 0.379997968673706 -0.25 1
lala 35 0.0046875 second first 14 1 741 8 5.820313 2.01999664306641 0 -1
lala 27 1.2 first first 22 1 742 8 7.939063 0.539997816085815 0.25 1
lala 29 4.577637E-06 second first 18 1 743 -6.6 -6.318537 0.319998025894165 0.25 -1
lala 36 0.0046875 second first 14 1 744 8 5.825001 0.379997968673706 0 -1
lala 35 3.66211E-05 second first 11 1 745 -6.6 -5.956356 2.77999591827393 0 -1
lala 27 0.01875 second second 10 1 746 -6.6 -5.913748 1.83999681472778 0 1
lala 34 0.009375 first second 2 1 747 -6.6 -6.016874 1.3999969959259 -0.25 -1
lala 31 0.0001464844 second first 21 1 748 6.6 5.776729 0.319998025894165 0.25 -1
lala 33 0.0001464844 second second 17 1 749 -8 -6.293312 1.73999691009521 0.25 1
lala 30 0.15 second first 19 1 750 -6.6 -6.704999 0.419997930526733 0.25 -1
lala 30 4.577637E-06 first first 18 1 751 -6.6 -6.318542 0.479997873306274 0.25 1
lala 40 0.0002929688 second first 9 1 752 -8 -5.842578 0.339998006820679 0 -1
lala 34 0.0001464844 second first 17 1 753 -8 -6.293165 0.819997549057007 0.25 -1
lala 37 3.66211E-05 first second 15 1 754 8 6.526112 0.539997816085815 0 -1
lala 38 3.66211E-05 first first 12 1 755 6.6 5.098089 1.05999732017517 0 1
lala 31 0.3 first first 19 1 756 -6.6 -7.004999 0.599997758865356 0.25 1
lala 34 0.00234375 second first 1 1 757 -8 -6.462499 0.679997682571411 -0.25 -1
lala 28 0.6 first first 22 1 758 8 7.339063 2.31999635696411 0.25 1
lala 24 0.0375 second second 8 1 759 -8 -6.7625 0.479997873306274 0 1
lala 34 0.0001464844 first first 13 1 760 6.6 5.391439 2.25999641418457 0 1
lala 32 0.0002929688 second second 23 1 761 8 6.215235 1.17999720573425 0.25 1
lala 26 0.0001464844 second second 0 1 762 -8 -6.398633 0.39999794960022 -0.25 1
lala 32 0.01875 first second 6 1 763 8 6.071973 0.439997911453247 -0.25 -1
lala 38 0.01875 second second 4 1 764 6.6 6.865312 0.719997644424438 -0.25 1
lala 31 2.288818E-06 second first 18 1 765 -6.6 -6.318539 0.579997777938843 0.25 -1
lala 33 0.0001464844 second second 23 1 766 8 6.215089 0.159998178482056 0.25 1
lala 29 0.6 second second 22 1 767 8 6.739063 0.139998197555542 0.25 1
lala 32 1.144409E-06 first second 18 1 768 -6.6 -6.31854 0.719997644424438 0.25 -1
lala 33 1.144409E-06 first second 18 1 769 -6.6 -6.318541 0.319998025894165 0.25 -1
lala 35 0.0001464844 second second 13 1 770 6.6 5.391293 0.179998159408569 0 1
lala 35 7.324219E-05 second first 17 1 771 -8 -6.293239 0.299998044967651 0.25 -1
lala 34 0.01875 second first 16 1 772 -8 -7.25 0.639997720718384 0.25 -1
lala 39 3.66211E-05 second first 12 1 773 6.6 5.098052 0.519997835159302 0 -1
lala 32 0.0001464844 second first 21 1 774 6.6 5.776875 0.299998044967651 0.25 -1
lala 30 0.6 second second 22 1 775 8 6.139063 0.799997568130493 0.25 1
lala 35 0.00234375 second first 1 1 776 -8 -6.464842 0.539997816085815 -0.25 -1
lala 36 0.00234375 second second 1 1 777 -8 -6.467186 1.97999668121338 -0.25 1
lala 28 0.0375 first second 10 1 778 -6.6 -5.876248 1.43999695777893 0 -1
lala 27 0.0001464844 second second 0 1 779 -8 -6.398487 0.319998025894165 -0.25 1
lala 34 0.0001464844 first first 23 1 780 8 6.214942 0.519997835159302 0.25 1
lala 35 0.0001464844 second second 23 1 781 8 6.214796 0.219998121261597 0.25 1
lala 35 0.009375 second first 20 1 782 6.6 5.585625 0.139998197555542 0.25 -1
lala 35 0.0046875 first first 2 1 783 -6.6 -6.021562 1.11999726295471 -0.25 1
lala 37 0.001171875 first first 1 1 784 -8 -6.466014 0.539997816085815 -0.25 1
lala 23 0.075 first first 5 1 785 6.6 6.442501 0.539997816085815 -0.25 1
lala 36 0.0001464844 first second 13 1 786 6.6 5.391146 1.0999972820282 0 -1
lala 31 1.2 first second 22 1 787 8 4.939063 0.579997777938843 0.25 -1
lala 36 1.831055E-05 first second 11 1 788 -6.6 -5.956374 1.27999711036682 0 -1
lala 33 0.0375 first second 6 1 789 8 6.109473 1.01999735832214 -0.25 -1
lala 29 0.0001464844 second second 3 1 790 -6.6 -6.225264 0.479997873306274 -0.25 1
lala 36 7.324219E-05 second first 17 1 791 -8 -6.293312 0.539997816085815 0.25 -1
lala 32 0.6 first first 22 1 792 8 5.539063 1.11999726295471 0.25 1
lala 25 0.01875 second second 8 1 793 -8 -6.74375 0.539997816085815 0 1
lala 37 1.831055E-05 first first 11 1 794 -6.6 -5.956392 0.679997682571411 0 1
lala 24 0.075 second second 5 1 795 6.6 6.367501 0.259998083114624 -0.25 1
lala 40 1.831055E-05 first first 12 1 796 6.6 5.09807 1.17999720573425 0 1
lala 37 7.324219E-05 second first 17 1 797 -8 -6.293386 0.939997434616089 0.25 -1
lala 38 1.831055E-05 second second 15 1 798 8 6.52613 0.339998006820679 0 1
lala 39 0.0375 second second 4 1 799 6.6 6.827812 0.359997987747192 -0.25 1
lala 34 0.075 second first 6 1 800 8 6.184473 0.499997854232788 -0.25 -1
lala 26 0.01875 second second 8 1 801 -8 -6.724999 0.499997854232788 0 1
lala 36 0.0046875 second second 20 1 802 6.6 5.590312 0.439997911453247 0.25 1
lala 28 0.0002929688 second first 0 1 803 -8 -6.398194 0.559997797012329 -0.25 -1
lala 25 0.075 first first 5 1 804 6.6 6.292501 0.499997854232788 -0.25 1
lala 30 0.0001464844 first first 3 1 805 -6.6 -6.225117 0.919997453689575 -0.25 1
lala 41 9.155274E-06 second first 12 1 806 6.6 5.098061 0.299998044967651 0 -1
lala 37 7.324219E-05 second first 13 1 807 6.6 5.39122 0.499997854232788 0 -1
lala 27 0.01875 second second 8 1 808 -8 -6.706249 0.479997873306274 0 1
lala 37 0.00234375 first second 20 1 809 6.6 5.587969 0.299998044967651 0.25 -1
lala 38 0.0001464844 second first 17 1 810 -8 -6.293532 0.319998025894165 0.25 -1
lala 32 0.15 second second 19 1 811 -6.6 -6.854999 0.379997968673706 0.25 1
lala 31 0.0001464844 first first 3 1 812 -6.6 -6.224971 0.579997777938843 -0.25 1
lala 33 0.0001464844 first second 21 1 813 6.6 5.777022 0.599997758865356 0.25 -1
lala 36 0.0002929688 second first 23 1 814 8 6.214503 0.779997587203979 0.25 -1
lala 27 0.075 first second 7 1 815 8 6.312501 0.979997396469116 -0.25 -1
lala 33 0.15 second second 19 1 816 -6.6 -6.704999 0.199998140335083 0.25 1
lala 28 0.0375 second second 8 1 817 -8 -6.668749 0.499997854232788 0 1
lala 38 9.155274E-06 first first 11 1 818 -6.6 -5.956383 0.339998006820679 0 1
lala 26 0.15 second first 5 1 819 6.6 6.142501 0.499997854232788 -0.25 -1
lala 40 0.075 second second 4 1 820 6.6 6.752812 0.379997968673706 -0.25 1
lala 38 7.324219E-05 first first 13 1 821 6.6 5.391293 0.519997835159302 0 1
lala 32 0.0002929688 second second 3 1 822 -6.6 -6.224678 0.119998216629028 -0.25 1
lala 29 0.01875 first first 10 1 823 -6.6 -5.894999 0.519997835159302 0 1
lala 39 9.155274E-06 second second 11 1 824 -6.6 -5.956374 0.959997415542603 0 1
lala 33 0.0005859375 second second 3 1 825 -6.6 -6.224092 0.419997930526733 -0.25 1
lala 38 0.001171875 second second 1 1 826 -8 -6.464842 0.379997968673706 -0.25 1
lala 38 0.001171875 first second 20 1 827 6.6 5.589141 0.23999810218811 0.25 -1
lala 30 0.009375 second second 10 1 828 -6.6 -5.885623 0.159998178482056 0 1
lala 41 0.0005859375 second second 9 1 829 -8 -5.843164 0.419997930526733 0 1
lala 39 9.155274E-06 second first 15 1 830 8 6.526121 0.639997720718384 0 -1
lala 42 0.0002929688 first second 9 1 830 -8 -5.842872 1.19999718666077 0 -1
lala 34 1.144409E-06 first second 18 1 831 -6.6 -6.318542 0.759997606277466 0.25 -1
lala 40 4.577637E-06 second second 15 1 832 8 6.526125 0.179998159408569 0 1
lala 29 0.0001464844 second second 0 1 833 -8 -6.398341 0.319998025894165 -0.25 1
lala 41 2.288818E-06 first first 15 1 834 8 6.526123 0.379997968673706 0 1
lala 42 2.288818E-06 second first 15 1 834 8 6.526121 0.279998064041138 0 -1
lala 40 9.155274E-06 second second 11 1 835 -6.6 -5.956365 1.01999735832214 0 1
lala 39 0.0002929688 second first 17 1 836 -8 -6.293825 0.279998064041138 0.25 -1
lala 39 3.66211E-05 first first 13 1 837 6.6 5.391256 1.47999691963196 0 1
lala 34 0.15 second second 19 1 838 -6.6 -6.554999 0.759997606277466 0.25 1
lala 39 0.001171875 first first 1 1 839 -8 -6.46367 1.33999705314636 -0.25 1
lala 29 0.075 second second 8 1 840 -8 -6.59375 0.759997606277466 0 1
lala 41 1.831055E-05 second first 11 1 841 -6.6 -5.956347 0.359997987747192 0 -1
lala 35 0.3 second first 19 1 842 -6.6 -6.254999 0.39999794960022 0.25 -1
lala 31 0.009375 second second 10 1 843 -6.6 -5.876248 0.39999794960022 0 1
lala 36 0.15 first second 19 1 844 -6.6 -6.404999 0.559997797012329 0.25 -1
lala 40 0.0005859375 first second 17 1 845 -8 -6.294411 1.15999722480774 0.25 -1
lala 40 3.66211E-05 first second 13 1 846 6.6 5.39122 0.599997758865356 0 -1
lala 43 1.144409E-06 first second 15 1 846 8 6.526122 0.23999810218811 0 -1
lala 34 0.001171875 second second 3 1 847 -6.6 -6.22292 0.419997930526733 -0.25 1
lala 36 0.00234375 second second 2 1 848 -6.6 -6.019218 0.23999810218811 -0.25 1
lala 37 0.0001464844 second second 23 1 849 8 6.21465 0.579997777938843 0.25 1
lala 40 0.00234375 second second 1 1 850 -8 -6.461326 0.799997568130493 -0.25 1
lala 41 0.0046875 first first 1 1 851 -8 -6.456639 6.70001840591431 -0.25 1
lala 35 0.15 second first 6 1 852 8 6.334473 0.439997911453247 -0.25 -1
lala 42 0.009375 first first 1 1 852 -8 -6.447264 0.479997873306274 -0.25 1
lala 35 2.288818E-06 second second 18 1 853 -6.6 -6.318544 0.339998006820679 0.25 1
lala 32 0.009375 first first 10 1 854 -6.6 -5.866873 0.639997720718384 0 1
lala 33 0.01875 first first 10 1 855 -6.6 -5.848123 0.299998044967651 0 1
lala 35 0.00234375 first first 3 1 856 -6.6 -6.220576 0.679997682571411 -0.25 1
lala 43 0.01875 second second 1 1 856 -8 -6.428514 0.219998121261597 -0.25 1
lala 28 0.15 second second 7 1 857 8 6.462501 1.45999693870544 -0.25 1
lala 30 0.15 second first 8 1 858 -8 -6.443749 0.359997987747192 0 -1
lala 41 0.001171875 second second 17 1 859 -8 -6.295583 0.159998178482056 0.25 1
lala 41 0.15 second second 4 1 860 6.6 6.602812 1.07999730110168 -0.25 1
lala 36 1.144409E-06 second first 18 1 861 -6.6 -6.318543 0.719997644424438 0.25 -1
lala 27 0.075 second first 5 1 862 6.6 6.217501 0.579997777938843 -0.25 -1
lala 37 0.0046875 first first 14 1 863 8 5.829688 0.699997663497925 0 1
lala 43 0.0001464844 first first 9 1 863 -8 -5.843018 0.459997892379761 0 1
lala 42 4.577637E-06 first second 12 1 863 6.6 5.098066 0.439997911453247 0 -1
lala 28 0.075 first second 5 1 864 6.6 6.292501 0.279998064041138 -0.25 -1
lala 37 0.00234375 first first 2 1 865 -6.6 -6.016874 1.33999705314636 -0.25 1
lala 37 5.722046E-07 second second 18 1 866 -6.6 -6.318544 0.279998064041138 0.25 1
lala 39 0.001171875 second second 20 1 867 6.6 5.590313 1.07999730110168 0.25 1
lala 36 0.3 second second 6 1 868 8 6.634473 0.439997911453247 -0.25 1
lala 31 0.075 first first 8 1 869 -8 -6.518749 0.779997587203979 0 1
lala 44 7.324219E-05 second second 9 1 869 -8 -5.842945 1.59999680519104 0 1
lala 43 4.577637E-06 first first 12 1 869 6.6 5.098071 0.279998064041138 0 1
lala 34 0.0375 second first 10 1 870 -6.6 -5.810623 0.179998159408569 0 -1
lala 38 0.00234375 second first 14 1 871 8 5.827344 0.719997644424438 0 -1
lala 40 0.0005859375 first first 20 1 872 6.6 5.589727 1.01999735832214 0.25 1
lala 41 0.0005859375 first first 20 1 873 6.6 5.589141 1.17999720573425 0.25 1
lala 29 0.075 first first 5 1 874 6.6 6.367501 0.919997453689575 -0.25 1
lala 37 0.15 second second 19 1 875 -6.6 -6.554999 0.299998044967651 0.25 1
lala 37 0.15 first first 6 1 876 8 6.484473 0.979997396469116 -0.25 1
lala 44 1.144409E-06 first first 15 1 876 8 6.526123 0.339998006820679 0 1
lala 45 5.722046E-07 second first 15 1 876 8 6.526122 0.61999773979187 0 -1
lala 42 0.3 second first 4 1 876 6.6 6.302812 1.27999711036682 -0.25 -1
lala 41 1.831055E-05 first second 13 1 877 6.6 5.391238 2.07999658584595 0 -1
lala 38 7.324219E-05 second second 23 1 878 8 6.214576 0.299998044967651 0.25 1
lala 36 0.0046875 second second 3 1 879 -6.6 -6.215889 0.359997987747192 -0.25 1
lala 42 9.155274E-06 second second 11 1 879 -6.6 -5.956356 0.319998025894165 0 1
lala 42 1.831055E-05 second first 13 1 879 6.6 5.391256 0.419997930526733 0 -1
lala 39 0.001171875 second first 14 1 880 8 5.828516 1.65999698638916 0 -1
lala 35 0.009375 second first 16 1 881 -8 -7.259375 0.379997968673706 0.25 -1
lala 42 0.0005859375 first first 20 1 881 6.6 5.588555 1.07999730110168 0.25 1
lala 38 2.861023E-07 second first 18 1 882 -6.6 -6.318543 0.23999810218811 0.25 -1
lala 30 7.324219E-05 second second 0 1 883 -8 -6.398267 0.319998025894165 -0.25 1
lala 43 0.001171875 second second 20 1 883 6.6 5.587383 0.679997682571411 0.25 1
lala 37 0.009375 second second 3 1 884 -6.6 -6.206514 0.319998025894165 -0.25 1
lala 33 0.3 second first 22 1 885 8 5.239063 0.459997892379761 0.25 -1
lala 43 1.831055E-05 second first 13 1 885 6.6 5.391274 0.279998064041138 0 -1
lala 34 0.0002929688 first first 21 1 886 6.6 5.777315 0.699997663497925 0.25 1
lala 38 0.075 second first 19 1 887 -6.6 -6.479999 0.419997930526733 0.25 -1
lala 44 3.66211E-05 first first 13 1 887 6.6 5.391311 0.339998006820679 0 1
lala 35 0.0001464844 second second 21 1 888 6.6 5.777168 0.279998064041138 0.25 1
lala 43 0.15 first second 4 1 888 6.6 6.452812 0.319998025894165 -0.25 -1
lala 36 0.0001464844 second second 21 1 889 6.6 5.777022 0.259998083114624 0.25 1
lala 39 0.0375 first first 19 1 890 -6.6 -6.517499 0.459997892379761 0.25 1
lala 42 0.0005859375 first second 17 1 890 -8 -6.294997 0.319998025894165 0.25 -1
lala 35 0.01875 second first 10 1 891 -6.6 -5.829373 0.299998044967651 0 -1
lala 44 0.00234375 second first 20 1 891 6.6 5.585039 0.319998025894165 0.25 -1
lala 38 0.15 second first 6 1 892 8 6.334473 0.199998140335083 -0.25 -1
lala 39 0.075 second first 6 1 893 8 6.409472 0.799997568130493 -0.25 -1
lala 30 0.0375 first first 5 1 894 6.6 6.330001 0.979997396469116 -0.25 1
lala 36 0.01875 first second 10 1 895 -6.6 -5.848124 0.519997835159302 0 -1
lala 39 1.430512E-07 second first 18 1 896 -6.6 -6.318543 0.219998121261597 0.25 -1
lala 36 0.009375 second second 16 1 897 -8 -7.26875 0.799997568130493 0.25 1
lala 32 0.0375 first first 8 1 898 -8 -6.481249 0.359997987747192 0 1
lala 40 1.430512E-07 second first 18 1 899 -6.6 -6.318543 1.41999697685242 0.25 -1
lala 44 2.288818E-06 first first 12 1 899 6.6 5.098068 1.97999668121338 0 1
lala 37 0.0001464844 second first 21 1 900 6.6 5.776875 0.599997758865356 0.25 -1
lala 31 0.0375 second first 5 1 901 6.6 6.292501 0.279998064041138 -0.25 -1
lala 31 7.324219E-05 second second 0 1 902 -8 -6.398194 0.479997873306274 -0.25 1
lala 45 2.288818E-06 second first 12 1 902 6.6 5.098066 0.279998064041138 0 -1
lala 38 0.00234375 second second 2 1 903 -6.6 -6.014531 0.719997644424438 -0.25 1
lala 32 7.324219E-05 second first 0 1 904 -8 -6.39812 0.23999810218811 -0.25 -1
lala 29 0.075 first second 7 1 905 8 6.387501 0.879997491836548 -0.25 -1
lala 43 4.577637E-06 first first 11 1 905 -6.6 -5.956351 0.339998006820679 0 1
lala 38 7.324219E-05 second first 21 1 906 6.6 5.776949 0.199998140335083 0.25 -1
lala 33 3.66211E-05 second second 0 1 907 -8 -6.398157 0.319998025894165 -0.25 1
lala 39 7.324219E-05 first first 21 1 908 6.6 5.777022 5.39999341964722 0.25 1
lala 41 1.430512E-07 second first 18 1 909 -6.6 -6.318543 0.259998083114624 0.25 -1
lala 42 2.861023E-07 first second 18 1 909 -6.6 -6.318544 0.439997911453247 0.25 -1
lala 30 0.0375 second first 7 1 910 8 6.425001 0.559997797012329 -0.25 -1
lala 40 0.001171875 second first 14 1 911 8 5.829689 0.23999810218811 0 -1
lala 37 0.01875 first first 10 1 912 -6.6 -5.866874 0.299998044967651 0 1
lala 45 7.324219E-05 second second 9 1 912 -8 -5.842871 0.23999810218811 0 1
lala 38 0.009375 first first 10 1 913 -6.6 -5.857499 0.919997453689575 0 1
lala 40 3.66211E-05 second second 21 1 914 6.6 5.776986 0.599997758865356 0.25 1
lala 46 7.324219E-05 second first 9 1 914 -8 -5.842798 3.57999515533447 0 -1
lala 37 0.0046875 second first 16 1 915 -8 -7.264063 0.939997434616089 0.25 -1
lala 44 0.15 second second 4 1 915 6.6 6.602812 0.439997911453247 -0.25 1
lala 43 0.0002929688 second second 17 1 915 -8 -6.29529 0.339998006820679 0.25 1
lala 39 7.324219E-05 second first 23 1 916 8 6.214503 0.299998044967651 0.25 -1
lala 33 0.0375 second second 8 1 917 -8 -6.443749 0.199998140335083 0 1
lala 39 0.009375 second first 10 1 918 -6.6 -5.848124 0.279998064041138 0 -1
lala 32 0.01875 second second 5 1 919 6.6 6.311251 0.319998025894165 -0.25 1
lala 41 0.001171875 second second 14 1 920 8 5.830861 0.139998197555542 0 1
lala 44 0.0001464844 second first 17 1 920 -8 -6.295143 0.319998025894165 0.25 -1
lala 46 1.144409E-06 second first 12 1 920 6.6 5.098067 0.719997644424438 0 -1
lala 47 1.144409E-06 second first 12 1 920 6.6 5.098068 1.17999720573425 0 -1
lala 44 4.577637E-06 second second 11 1 920 -6.6 -5.956346 0.319998025894165 0 1
lala 33 0.009375 second second 5 1 921 6.6 6.301876 0.299998044967651 -0.25 1
lala 45 0.001171875 first first 20 1 921 6.6 5.586211 1.17999720573425 0.25 1
lala 38 0.01875 second first 3 1 922 -6.6 -6.187764 7.18002939224243 -0.25 -1
lala 48 1.144409E-06 first second 12 1 922 6.6 5.098069 0.61999773979187 0 -1
lala 39 0.0046875 second second 2 1 923 -6.6 -6.009843 0.379997968673706 -0.25 1
lala 34 0.15 first second 22 1 924 8 5.389063 0.39999794960022 0.25 -1
lala 39 0.009375 second second 3 1 925 -6.6 -6.197139 0.279998064041138 -0.25 1
lala 47 3.66211E-05 second first 9 1 925 -8 -5.842834 0.699997663497925 0 -1
lala 40 3.66211E-05 first first 23 1 926 8 6.21454 0.459997892379761 0.25 1
lala 43 5.722046E-07 second second 18 1 926 -6.6 -6.318544 0.379997968673706 0.25 1
lala 44 0.0375 second first 1 1 926 -8 -6.391014 0.259998083114624 -0.25 -1
lala 34 0.009375 second first 5 1 927 6.6 6.292501 0.61999773979187 -0.25 -1
lala 34 0.0375 second second 8 1 928 -8 -6.40625 0.419997930526733 0 1
lala 46 2.861023E-07 second second 15 1 928 8 6.526123 0.23999810218811 0 1
lala 40 0.0046875 first first 10 1 929 -6.6 -5.852811 1.59999680519104 0 1
lala 35 0.15 second first 22 1 930 8 5.539063 0.219998121261597 0.25 -1
lala 38 0.00234375 second second 16 1 931 -8 -7.266407 0.259998083114624 0.25 1
lala 45 1.831055E-05 first first 13 1 931 6.6 5.391293 0.599997758865356 0 1
lala 45 7.324219E-05 second second 17 1 931 -8 -6.295217 0.199998140335083 0.25 1
lala 41 1.831055E-05 first first 23 1 932 8 6.214521 0.259998083114624 0.25 1
lala 41 0.00234375 second second 10 1 933 -6.6 -5.850467 0.479997873306274 0 1
lala 45 0.075 first second 4 1 933 6.6 6.527812 0.719997644424438 -0.25 -1
lala 34 1.831055E-05 second second 0 1 934 -8 -6.398139 0.319998025894165 -0.25 1
lala 42 0.00234375 second second 10 1 934 -6.6 -5.848124 0.259998083114624 0 1
lala 39 0.001171875 second first 16 1 935 -8 -7.265234 0.199998140335083 0.25 -1
lala 40 0.009375 first first 2 1 936 -6.6 -6.000468 0.459997892379761 -0.25 1
lala 40 0.0005859375 second second 16 1 937 -8 -7.265821 0.219998121261597 0.25 1
lala 46 1.831055E-05 second first 13 1 937 6.6 5.391274 0.379997968673706 0 -1
lala 35 0.075 second first 8 1 938 -8 -6.33125 0.359997987747192 0 -1
lala 42 1.831055E-05 second first 23 1 938 8 6.214503 0.639997720718384 0.25 -1
lala 43 0.00234375 second second 10 1 938 -6.6 -5.84578 0.379997968673706 0 1
lala 45 4.577637E-06 first second 11 1 938 -6.6 -5.956341 0.199998140335083 0 -1
lala 42 0.0005859375 first second 14 1 938 8 5.830275 0.259998083114624 0 -1
lala 35 1.831055E-05 second second 0 1 939 -8 -6.398121 25.8604559898376 -0.25 1
lala 44 0.0046875 second first 10 1 939 -6.6 -5.841093 0.519997835159302 0 -1
lala 49 2.288818E-06 first first 12 1 939 6.6 5.098071 0.839997529983521 0 1
lala 35 0.0046875 second second 5 1 940 6.6 6.297188 0.23999810218811 -0.25 1
lala 36 0.00234375 first second 5 1 941 6.6 6.294845 0.499997854232788 -0.25 -1
lala 36 0.15 second second 22 1 942 8 5.689063 0.259998083114624 0.25 1
lala 45 0.00234375 second first 10 1 942 -6.6 -5.843436 0.279998064041138 0 -1
lala 46 0.00234375 second second 10 1 942 -6.6 -5.84578 0.459997892379761 0 1
lala 41 0.01875 second first 2 1 943 -6.6 -5.981718 1.21999716758728 -0.25 -1
lala 46 0.0375 second second 4 1 943 6.6 6.565312 0.419997930526733 -0.25 1
lala 47 9.155274E-06 second second 13 1 943 6.6 5.391284 0.679997682571411 0 1
lala 36 1.831055E-05 second first 0 1 944 -8 -6.398103 0.61999773979187 -0.25 -1
lala 40 0.01875 second first 19 1 945 -6.6 -6.498749 1.93999671936035 0.25 -1
lala 47 1.430512E-07 second second 15 1 945 8 6.526123 0.23999810218811 0 1
lala 44 2.861023E-07 second second 18 1 945 -6.6 -6.318544 0.0599982738494873 0.25 1
lala 37 9.155274E-06 second first 0 1 946 -8 -6.398112 0.479997873306274 -0.25 -1
lala 45 0.01875 second first 1 1 946 -8 -6.409764 0.219998121261597 -0.25 -1
lala 41 3.66211E-05 first second 21 1 947 6.6 5.776949 0.299998044967651 0.25 -1
lala 31 0.0375 first first 7 1 948 8 6.462501 0.459997892379761 -0.25 1
lala 41 0.009375 second second 19 1 949 -6.6 -6.508124 0.199998140335083 0.25 1
lala 42 0.009375 second first 2 1 949 -6.6 -5.991093 2.13999652862549 -0.25 -1
lala 43 0.0002929688 second first 14 1 949 8 5.830567 0.419997930526733 0 -1
lala 40 0.0046875 second second 3 1 950 -6.6 -6.192451 0.279998064041138 -0.25 1
lala 37 0.075 first second 22 1 951 8 5.614063 0.419997930526733 0.25 -1
lala 42 0.0046875 second second 19 1 951 -6.6 -6.503437 0.219998121261597 0.25 1
lala 44 0.0002929688 second first 14 1 951 8 5.83086 0.139998197555542 0 -1
lala 45 0.0002929688 first second 14 1 951 8 5.831153 0.219998121261597 0 -1
lala 41 0.0046875 second first 3 1 952 -6.6 -6.187764 0.0399982929229736 -0.25 -1
lala 50 1.144409E-06 second second 12 1 952 6.6 5.09807 0.199998140335083 0 1
lala 47 0.001171875 second first 10 1 952 -6.6 -5.844608 1.35999703407288 0 -1
lala 41 0.0002929688 second second 16 1 953 -8 -7.265528 0.599997758865356 0.25 1
lala 46 3.66211E-05 second second 17 1 953 -8 -6.29518 0.599997758865356 0.25 1
lala 46 2.288818E-06 first second 11 1 953 -6.6 -5.956344 0.639997720718384 0 -1
lala 51 1.144409E-06 first first 12 1 953 6.6 5.098069 0.439997911453247 0 1
lala 48 4.577637E-06 second second 13 1 953 6.6 5.391279 0.179998159408569 0 1
lala 46 0.0005859375 first second 14 1 953 8 5.831739 0.339998006820679 0 -1
lala 36 0.0375 second first 8 1 954 -8 -6.36875 0.159998178482056 0 -1
lala 49 4.577637E-06 first first 13 1 954 6.6 5.391274 1.23999714851379 0 1
lala 40 0.075 second first 6 1 955 8 6.484472 0.779997587203979 -0.25 -1
lala 32 0.01875 second first 7 1 956 8 6.443751 0.299998044967651 -0.25 -1
lala 48 3.66211E-05 first first 9 1 956 -8 -5.842871 0.699997663497925 0 1
lala 42 1.831055E-05 second first 21 1 956 6.6 5.776967 0.339998006820679 0.25 -1
lala 43 0.009375 second second 2 1 956 -6.6 -6.000468 2.17999649047852 -0.25 1
lala 43 0.0046875 second first 19 1 956 -6.6 -6.498749 0.479997873306274 0.25 -1
lala 47 0.01875 second second 4 1 956 6.6 6.546562 0.279998064041138 -0.25 1
lala 37 0.0375 second first 8 1 957 -8 -6.40625 1.29999709129334 0 -1
lala 43 9.155274E-06 second second 23 1 957 8 6.214512 0.899997472763062 0.25 1
lala 46 0.01875 second second 1 1 957 -8 -6.428514 0.939997434616089 -0.25 1
lala 48 0.0005859375 second first 10 1 957 -6.6 -5.845194 0.23999810218811 0 -1
lala 52 1.144409E-06 second second 12 1 957 6.6 5.098068 0.219998121261597 0 1
lala 41 0.075 second second 6 1 958 8 6.559472 1.07999730110168 -0.25 1
lala 38 0.0375 first first 22 1 959 8 5.651563 2.07999658584595 0.25 1
