subject PestNr Step_Size_OnTrial Response_Interval Pest_Interval Condition block trial velH velH_Pest Reaction_Time velH_Subject Start_Above Response_MotionEstimation
lala 1 1.2 first first 21 1 1 6.6 8.778 8.4800591468811 0.25 1 1
lala 1 1.2 first first 0 1 2 -8 -5.28 1.49999690055847 -0.25 0 1
lala 1 1.2 first first 9 1 3 -8 -10.64 0.859997510910034 0 1 1
lala 1 1.2 first first 14 1 4 8 5.28 2.37999629974365 0 0 1
lala 1 1.2 second first 16 1 5 -8 -5.28 1.15999722480774 0.25 0 -1
lala 2 1.2 first first 0 1 6 -8 -4.08 1.73999691009521 -0.25 0 1
lala 1 1.2 first second 12 1 7 6.6 4.356 1.77999687194824 0 0 -1
lala 2 1.2 first second 9 1 8 -8 -9.440001 1.3999969959259 0 1 -1
lala 3 1.2 first second 0 1 9 -8 -2.88 3.11999559402466 -0.25 0 -1
lala 1 1.2 first first 19 1 10 -6.6 -8.778 1.17999720573425 0.25 1 1
lala 1 1.2 first first 22 1 11 8 5.28 1.69999694824219 0.25 0 1
lala 3 1.2 first first 9 1 12 -8 -10.64 0.439997911453247 0 1 1
lala 4 1.2 first first 0 1 13 -8 -4.08 1.7199969291687 -0.25 0 1
lala 2 1.2 first first 16 1 14 -8 -6.48 1.25999712944031 0.25 0 1
lala 1 1.2 first first 6 1 15 8 5.28 3.0399956703186 -0.25 0 1
lala 1 1.2 first first 15 1 16 8 10.64 0.279998064041138 0 1 1
lala 2 1.2 first first 12 1 17 6.6 5.556 0.599997758865356 0 0 1
lala 3 1.2 second first 12 1 18 6.6 4.356 -2.40000009536743 0 0 -1
lala 2 1.2 first first 21 1 19 6.6 7.578 1.21999716758728 0.25 1 1
lala 1 1.2 first first 7 1 20 8 10.64 0.559997797012329 -0.25 1 1
lala 2 1.2 first second 22 1 21 8 4.08 0.459997892379761 0.25 0 -1
lala 1 1.2 first second 10 1 22 -6.6 -4.356 0.839997529983521 0 0 -1
lala 1 1.2 second second 3 1 23 -6.6 -8.778 -2.40000009536743 -0.25 1 1
lala 3 1.2 first first 21 1 24 6.6 6.378 0.459997892379761 0.25 1 1
lala 1 1.2 first second 2 1 25 -6.6 -4.356 0.919997453689575 -0.25 0 -1
lala 2 1.2 second second 19 1 26 -6.6 -7.578 0.819997549057007 0.25 1 1
lala 3 1.2 first second 16 1 27 -8 -5.280001 2.11999654769897 0.25 0 -1
lala 4 1.2 first second 12 1 28 6.6 5.556 2.81999588012695 0 0 -1
lala 3 1.2 first second 22 1 29 8 5.28 0.919997453689575 0.25 0 -1
lala 2 1.2 first second 2 1 30 -6.6 -5.556 0.699997663497925 -0.25 0 -1
lala 2 1.2 first first 15 1 31 8 9.440001 2.83999586105347 0 1 1
lala 2 1.2 first second 3 1 32 -6.6 -7.578 1.11999726295471 -0.25 1 -1
lala 1 1.2 second second 17 1 33 -8 -10.64 0.499997854232788 0.25 1 1
lala 3 1.2 first first 15 1 34 8 8.240001 1.81999683380127 0 1 1
lala 4 1.2 first first 9 1 35 -8 -9.440001 0.99999737739563 0 1 1
lala 3 1.2 first second 19 1 36 -6.6 -6.378 2.5999960899353 0.25 1 -1
lala 5 1.2 first first 12 1 37 6.6 6.756 1.35999703407288 0 0 1
lala 1 1.2 first first 4 1 38 6.6 4.356 2.21999645233154 -0.25 0 1
lala 4 1.2 first second 15 1 39 8 7.040001 1.59999680519104 0 1 -1
lala 2 1.2 second first 7 1 40 8 9.440001 3.09999561309814 -0.25 1 -1
lala 1 1.2 first first 11 1 41 -6.6 -8.778 1.65999698638916 0 1 1
lala 3 1.2 first second 7 1 42 8 10.64 4.21999454498291 -0.25 1 -1
lala 1 1.2 second first 8 1 43 -8 -5.28 -2.40000009536743 0 0 -1
lala 4 1.2 second second 16 1 44 -8 -6.48 -2.40000009536743 0.25 0 1
lala 1 1.2 first second 20 1 45 6.6 4.356 2.11999654769897 0.25 0 -1
lala 2 1.2 first first 10 1 46 -6.6 -5.556 4.17999458312988 0 0 1
lala 2 1.2 first first 8 1 47 -8 -6.48 0.499997854232788 0 0 1
lala 5 0.6 second second 16 1 48 -8 -5.880001 -2.40000009536743 0.25 0 1
lala 2 1.2 second second 17 1 49 -8 -9.440001 2.159996509552 0.25 1 1
lala 4 1.2 first second 19 1 50 -6.6 -7.578 1.41999697685242 0.25 1 -1
lala 5 0.6 first second 0 1 51 -8 -3.48 1.11999726295471 -0.25 0 -1
lala 4 1.2 first first 22 1 52 8 6.48 3.65999507904053 0.25 0 1
lala 5 1.2 first first 19 1 53 -6.6 -8.778 2.99999570846558 0.25 1 1
lala 1 1.2 first first 1 1 54 -8 -10.64 0.539997816085815 -0.25 1 1
lala 4 1.2 first first 7 1 55 8 11.84 0.839997529983521 -0.25 1 1
lala 2 1.2 second first 4 1 56 6.6 3.156 2.19999647140503 -0.25 0 -1
lala 1 1.2 first second 5 1 57 6.6 8.778 1.23999714851379 -0.25 1 -1
lala 6 0.6 first first 12 1 58 6.6 6.156 0.419997930526733 0 0 1
lala 4 1.2 second second 21 1 59 6.6 5.178 5.73999643325806 0.25 1 1
lala 3 1.2 second second 3 1 60 -6.6 -8.778 0.479997873306274 -0.25 1 1
lala 5 0.6 first second 22 1 61 8 5.88 1.31999707221985 0.25 0 -1
lala 2 1.2 first second 6 1 62 8 4.08 1.07999730110168 -0.25 0 -1
lala 5 0.6 first first 15 1 63 8 7.640001 0.799997568130493 0 1 1
lala 3 1.2 first first 4 1 64 6.6 4.356 0.519997835159302 -0.25 0 1
lala 6 0.6 first first 19 1 65 -6.6 -8.177999 0.499997854232788 0.25 1 1
lala 5 0.6 first second 7 1 66 8 11.24 1.95999670028687 -0.25 1 -1
lala 6 0.3 first second 0 1 67 -8 -3.78 0.819997549057007 -0.25 0 -1
lala 3 1.2 second second 8 1 68 -8 -5.280001 2.33999633789063 0 0 1
lala 5 1.2 second first 9 1 69 -8 -8.240001 0.499997854232788 0 1 -1
lala 7 0.6 first first 19 1 70 -6.6 -7.578 2.11999654769897 0.25 1 1
lala 7 0.3 first second 0 1 71 -8 -4.08 3.99999475479126 -0.25 0 -1
lala 6 0.3 first first 15 1 72 8 7.340001 2.77999591827393 0 1 1
lala 2 1.2 first first 11 1 73 -6.6 -7.578 1.57999682426453 0 1 1
lala 2 1.2 first second 1 1 74 -8 -9.440001 4.09999465942383 -0.25 1 -1
lala 8 0.6 first first 19 1 75 -6.6 -6.978 1.83999681472778 0.25 1 1
lala 9 1.2 first first 19 1 76 -6.6 -5.778 1.51999688148499 0.25 1 1
lala 1 1.2 first first 18 1 77 -6.6 -4.356 1.27999711036682 0.25 0 1
lala 1 1.2 first first 13 1 78 6.6 8.778 0.479997873306274 0 1 1
lala 3 1.2 first first 11 1 79 -6.6 -6.378 1.57999682426453 0 1 1
lala 6 0.6 first first 9 1 80 -8 -8.840001 103.434251308441 0 1 1
lala 3 1.2 first second 2 1 81 -6.6 -6.756 2.47999620437622 -0.25 0 -1
lala 7 0.3 second second 9 1 82 -8 -8.540001 -2.40000009536743 0 1 1
lala 4 1.2 first first 3 1 83 -6.6 -7.578 0.879997491836548 -0.25 1 1
lala 3 1.2 first first 1 1 84 -8 -10.64 0.199998140335083 -0.25 1 1
lala 8 0.3 first second 9 1 85 -8 -8.240001 2.19999647140503 0 1 -1
lala 5 2.4 first second 21 1 86 6.6 2.778 1.5399968624115 0.25 1 -1
lala 6 0.6 first first 16 1 87 -8 -5.280001 1.77999687194824 0.25 0 1
lala 7 0.3 first first 15 1 88 8 7.04 2.5999960899353 0 1 1
lala 1 1.2 first second 23 1 89 8 10.64 0.899997472763062 0.25 1 -1
lala 2 1.2 first first 5 1 90 6.6 9.978 1.05999732017517 -0.25 1 1
lala 9 0.15 first second 9 1 91 -8 -8.39 0.559997797012329 0 1 -1
lala 4 1.2 second first 8 1 92 -8 -4.080001 -2.40000009536743 0 0 -1
lala 2 1.2 second first 14 1 93 8 4.08 2.57999610900879 0 0 -1
lala 6 0.3 first second 22 1 94 8 6.18 1.37999701499939 0.25 0 -1
lala 3 1.2 first first 5 1 95 6.6 8.778 3.43999528884888 -0.25 1 1
lala 4 1.2 first first 5 1 96 6.6 7.578 1.19999718666077 -0.25 1 1
lala 2 1.2 second first 20 1 97 6.6 5.556 1.15999722480774 0.25 0 -1
lala 2 1.2 first first 23 1 98 8 11.84 4.37999439239502 0.25 1 1
lala 5 1.2 first second 3 1 99 -6.6 -6.378 1.81999683380127 -0.25 1 -1
lala 3 1.2 first second 6 1 100 8 5.28 2.05999660491943 -0.25 0 -1
lala 4 1.2 first second 6 1 101 8 6.48 1.47999691963196 -0.25 0 -1
lala 5 2.4 first first 5 1 102 6.6 5.178 1.69999694824219 -0.25 1 1
lala 4 1.2 first first 11 1 103 -6.6 -5.178 1.8599967956543 0 1 1
lala 7 0.6 first second 12 1 104 6.6 5.556 1.99999666213989 0 0 -1
lala 5 2.4 first first 11 1 105 -6.6 -2.778 5.15999364852905 0 1 1
lala 10 0.15 second second 9 1 106 -8 -8.54 2.07999658584595 0 1 1
lala 8 0.3 second first 0 1 107 -8 -4.38 2.27999639511108 -0.25 0 -1
lala 6 1.2 first second 21 1 108 6.6 3.978 2.91999578475952 0.25 1 -1
lala 8 0.3 first second 12 1 109 6.6 5.856 1.75999689102173 0 0 -1
lala 6 4.8 second first 5 1 110 6.6 0.3779998 2.03999662399292 -0.25 1 -1
lala 2 1.2 first first 13 1 111 6.6 7.578 5.35999345779419 0 1 1
lala 4 1.2 first first 4 1 112 6.6 3.156 2.5999960899353 -0.25 0 1
lala 3 1.2 second second 13 1 113 6.6 6.378 0.719997644424438 0 1 1
lala 10 2.4 first first 19 1 114 -6.6 -3.378 4.53999423980713 0.25 1 1
lala 4 1.2 first second 1 1 115 -8 -9.440001 0.739997625350952 -0.25 1 -1
lala 5 2.4 first first 6 1 116 8 8.879999 1.37999701499939 -0.25 0 1
lala 8 0.3 first first 15 1 117 8 6.74 2.51999616622925 0 1 1
lala 9 0.6 first second 0 1 118 -8 -4.98 1.91999673843384 -0.25 0 -1
lala 5 0.6 first first 8 1 119 -8 -4.680001 5.69999551773071 0 0 1
lala 7 0.3 first first 22 1 120 8 6.48 1.8599967956543 0.25 0 1
lala 3 1.2 first first 14 1 121 8 5.28 1.81999683380127 0 0 1
lala 11 0.075 first first 9 1 122 -8 -8.465 3.7599949836731 0 1 1
lala 4 1.2 first second 14 1 123 8 4.08 1.33999705314636 0 0 -1
lala 6 0.6 first second 3 1 124 -6.6 -6.978 0.859997510910034 -0.25 1 -1
lala 5 0.6 first first 14 1 125 8 4.68 0.719997644424438 0 0 1
lala 9 0.6 first first 15 1 126 8 6.14 0.879997491836548 0 1 1
lala 4 1.2 first first 13 1 127 6.6 5.178 1.37999701499939 0 1 1
lala 3 1.2 first first 10 1 128 -6.6 -4.356 0.539997816085815 0 0 1
lala 6 4.8 first second 11 1 129 -6.6 2.022 0.819997549057007 0 1 -1
lala 7 2.4 first second 11 1 130 -6.6 -0.3780003 1.47999691963196 0 1 -1
lala 6 0.3 first first 8 1 131 -8 -4.380001 2.31999635696411 0 0 1
lala 10 1.2 first second 15 1 132 8 4.940001 1.07999730110168 0 1 -1
lala 7 1.2 first first 21 1 133 6.6 5.178 0.659997701644897 0.25 1 1
lala 8 0.15 first second 22 1 134 8 6.33 1.59999680519104 0.25 0 -1
lala 5 0.6 first first 1 1 135 -8 -10.04 1.69999694824219 -0.25 1 1
lala 5 1.2 first first 4 1 136 6.6 1.956 1.13999724388123 -0.25 0 1
lala 10 1.2 second second 0 1 137 -8 -6.18 1.45999693870544 -0.25 0 1
lala 12 0.075 first first 9 1 138 -8 -8.39 0.539997816085815 0 1 1
lala 2 1.2 first first 18 1 139 -6.6 -3.156 1.93999671936035 0.25 0 1
lala 3 1.2 first second 18 1 140 -6.6 -1.956 0.759997606277466 0.25 0 -1
lala 5 2.4 first first 13 1 141 6.6 2.778 0.739997625350952 0 1 1
lala 6 0.3 first second 14 1 142 8 4.38 0.61999773979187 0 0 -1
lala 8 0.6 first first 21 1 143 6.6 4.578001 0.579997777938843 0.25 1 1
lala 11 0.6 first first 15 1 144 8 5.54 0.779997587203979 0 1 1
lala 4 1.2 first second 18 1 145 -6.6 -3.156 1.41999697685242 0.25 0 -1
lala 6 0.3 first second 7 1 146 8 11.54 3.05999565124512 -0.25 1 -1
lala 3 1.2 first first 20 1 147 6.6 6.756 2.09999656677246 0.25 0 1
lala 4 1.2 first first 2 1 148 -6.6 -7.955999 3.07999563217163 -0.25 0 1
lala 6 4.8 first first 13 1 149 6.6 -2.022 1.93999671936035 0 1 1
lala 6 2.4 first first 4 1 150 6.6 -0.4440002 4.4999942779541 -0.25 0 1
lala 7 0.6 second first 16 1 151 -8 -4.680001 -2.40000009536743 0.25 0 -1
lala 12 0.3 first first 15 1 152 8 5.24 0.779997587203979 0 1 1
lala 7 0.3 first first 7 1 153 8 11.84 11.3401246070862 -0.25 1 1
lala 7 4.8 first second 4 1 154 6.6 -5.244 19.3403067588806 -0.25 0 -1
lala 9 0.6 second first 21 1 155 6.6 3.978001 1.17999720573425 0.25 1 -1
lala 8 0.15 first first 7 1 156 8 11.69 0.299998044967651 -0.25 1 1
lala 6 0.3 first second 1 1 157 -8 -9.740001 0.919997453689575 -0.25 1 -1
lala 8 2.4 second first 4 1 158 6.6 -2.844 -2.40000009536743 -0.25 0 -1
lala 8 0.3 second first 16 1 159 -8 -4.980001 0.799997568130493 0.25 0 -1
lala 7 0.15 second second 1 1 160 -8 -9.89 -2.40000009536743 -0.25 1 1
lala 7 9.6 second second 13 1 161 6.6 -11.622 -2.40000009536743 0 1 1
lala 11 0.6 first first 0 1 162 -8 -5.58 1.8599967956543 -0.25 0 1
lala 11 4.8 first second 19 1 163 -6.6 1.422 2.33999633789063 0.25 1 -1
lala 9 0.15 first second 7 1 164 8 11.54 0.959997415542603 -0.25 1 -1
lala 9 0.3 second first 16 1 165 -8 -5.280001 3.13999557495117 0.25 0 -1
lala 12 2.4 second first 19 1 166 -6.6 -0.9779997 0.739997625350952 0.25 1 -1
lala 9 0.075 second first 22 1 167 8 6.405 1.15999722480774 0.25 0 -1
lala 9 2.4 second first 4 1 168 6.6 -0.4440002 -2.40000009536743 -0.25 0 -1
lala 8 2.4 second first 11 1 169 -6.6 -2.778 -2.40000009536743 0 1 -1
lala 10 0.075 first first 7 1 170 8 11.615 0.939997434616089 -0.25 1 1
lala 10 0.3 first second 21 1 171 6.6 4.278001 0.639997720718384 0.25 1 -1
lala 9 2.4 first second 11 1 172 -6.6 -5.178 2.95999574661255 0 1 -1
lala 13 0.3 second second 15 1 173 8 4.94 0.579997777938843 0 1 1
lala 4 1.2 second first 10 1 174 -6.6 -3.156 0.699997663497925 0 0 -1
lala 3 1.2 second second 23 1 175 8 10.64 0.61999773979187 0.25 1 1
lala 14 0.3 second first 15 1 176 8 4.64 -2.40000009536743 0 1 -1
lala 13 0.075 second first 9 1 177 -8 -8.315001 -2.40000009536743 0 1 -1
lala 4 1.2 second first 20 1 178 6.6 5.556 -2.40000009536743 0.25 0 -1
lala 11 0.0375 second second 7 1 179 8 11.5775 3.1799955368042 -0.25 1 1
lala 7 0.15 first second 14 1 180 8 4.53 0.819997549057007 0 0 -1
lala 7 0.6 first first 3 1 181 -6.6 -7.578 1.31999707221985 -0.25 1 1
lala 8 0.075 first second 1 1 182 -8 -9.815001 0.639997720718384 -0.25 1 -1
lala 6 1.2 first first 6 1 183 8 7.679999 4.15999460220337 -0.25 0 1
lala 14 0.0375 first second 9 1 184 -8 -8.352501 0.699997663497925 0 1 -1
lala 5 0.6 first second 10 1 185 -6.6 -3.756 3.31999540328979 0 0 -1
lala 5 1.2 first second 18 1 186 -6.6 -4.356 4.95999383926392 0.25 0 -1
lala 6 2.4 first second 18 1 187 -6.6 -6.756 0.539997816085815 0.25 0 -1
lala 11 0.3 first second 21 1 188 6.6 4.578001 3.0399956703186 0.25 1 -1
lala 5 0.6 first first 2 1 189 -6.6 -7.355999 0.439997911453247 -0.25 0 1
lala 10 4.8 second second 11 1 190 -6.6 -9.978001 0.799997568130493 0 1 1
lala 7 2.4 second first 5 1 191 6.6 2.778 -2.40000009536743 -0.25 1 -1
lala 5 0.6 first second 20 1 192 6.6 6.156 0.719997644424438 0.25 0 -1
lala 15 0.0375 first first 9 1 193 -8 -8.390001 2.67999601364136 0 1 1
lala 12 0.3 first second 21 1 194 6.6 4.878001 1.87999677658081 0.25 1 -1
lala 9 0.3 first first 12 1 195 6.6 6.156 1.03999733924866 0 0 1
lala 10 0.075 first second 22 1 196 8 6.48 0.499997854232788 0.25 0 -1
lala 8 19.2 second second 13 1 197 6.6 -30.822 1.27999711036682 0 1 1
lala 12 0.0375 second second 7 1 198 8 11.54 -2.40000009536743 -0.25 1 1
lala 13 2.4 first second 19 1 199 -6.6 -3.378 3.19999551773071 0.25 1 -1
lala 11 2.4 first second 11 1 200 -6.6 -7.578001 1.43999695777893 0 1 -1
lala 9 38.4 second second 13 1 201 6.6 -69.222 2.2999963760376 0 1 1
lala 14 2.4 first first 19 1 202 -6.6 -5.778 1.3999969959259 0.25 1 1
lala 6 0.6 first first 2 1 203 -6.6 -6.756 1.01999735832214 -0.25 0 1
lala 3 1.2 first second 17 1 204 -8 -8.240001 3.09999561309814 0.25 1 -1
lala 6 0.6 first first 10 1 205 -6.6 -4.356 2.99999570846558 0 0 1
lala 12 0.6 first first 0 1 206 -8 -4.98 1.37999701499939 -0.25 0 1
lala 13 0.6 first second 0 1 207 -8 -4.380001 1.91999673843384 -0.25 0 -1
lala 16 0.01875 first first 9 1 208 -8 -8.371251 45.7209105491638 0 1 1
lala 10 0.15 first first 12 1 209 6.6 6.006 2.01999664306641 0 0 1
lala 7 0.3 first second 10 1 210 -6.6 -4.056 1.21999716758728 0 0 -1
lala 8 0.3 second second 3 1 211 -6.6 -7.278 -2.40000009536743 -0.25 1 1
lala 10 2.4 second first 4 1 212 6.6 1.956 -2.40000009536743 -0.25 0 -1
lala 14 0.3 first second 0 1 213 -8 -4.680001 1.07999730110168 -0.25 0 -1
lala 11 0.075 first first 22 1 214 8 6.554999 3.07999563217163 0.25 0 1
lala 13 0.0375 first first 7 1 215 8 11.5025 0.779997587203979 -0.25 1 1
lala 6 0.6 first first 20 1 216 6.6 6.756 3.13999557495117 0.25 0 1
lala 7 0.3 first second 20 1 217 6.6 6.455999 0.519997835159302 0.25 0 -1
lala 14 0.075 first second 7 1 218 8 11.4275 0.819997549057007 -0.25 1 -1
lala 7 1.2 first second 6 1 219 8 6.48 3.11999559402466 -0.25 0 -1
lala 4 1.2 first first 17 1 220 -8 -9.440001 2.07999658584595 0.25 1 1
lala 8 0.15 first first 14 1 221 8 4.68 3.31999540328979 0 0 1
lala 9 0.3 first first 3 1 222 -6.6 -6.978 1.35999703407288 -0.25 1 1
lala 9 0.0375 first second 1 1 223 -8 -9.852501 4.39999437332153 -0.25 1 -1
lala 12 0.0375 first second 22 1 224 8 6.517499 1.5399968624115 0.25 0 -1
lala 8 2.4 first first 5 1 225 6.6 5.178 1.95999670028687 -0.25 1 1
lala 10 0.0375 second second 1 1 226 -8 -9.890001 -2.40000009536743 -0.25 1 1
lala 9 1.2 first second 5 1 227 6.6 3.978 1.29999709129334 -0.25 1 -1
lala 12 1.2 first second 11 1 228 -6.6 -8.778001 0.579997777938843 0 1 -1
lala 11 0.15 first first 12 1 229 6.6 5.856 0.539997816085815 0 0 1
lala 11 0.01875 first first 1 1 230 -8 -9.871251 3.23999547958374 -0.25 1 1
lala 11 4.8 second second 4 1 231 6.6 6.756 0.599997758865356 -0.25 0 1
lala 13 1.2 first first 11 1 232 -6.6 -9.978001 0.639997720718384 0 1 1
lala 8 0.6 first second 6 1 233 8 7.079999 0.599997758865356 -0.25 0 -1
lala 12 2.4 first first 4 1 234 6.6 4.356 3.05999565124512 -0.25 0 1
lala 8 0.15 first second 10 1 235 -6.6 -4.206 2.53999614715576 0 0 -1
lala 7 4.8 first second 18 1 236 -6.6 -11.556 0.519997835159302 0.25 0 -1
lala 12 0.15 first first 12 1 237 6.6 5.706 0.659997701644897 0 0 1
lala 15 0.0375 first first 7 1 238 8 11.465 0.799997568130493 -0.25 1 1
lala 15 0.15 first second 15 1 239 8 4.79 1.63999700546265 0 1 -1
lala 16 0.01875 first first 7 1 240 8 11.44625 5.27999353408813 -0.25 1 1
lala 13 0.6 first first 21 1 241 6.6 5.478001 4.51999425888062 0.25 1 1
lala 8 0.15 first first 20 1 242 6.6 6.605999 4.55999422073364 0.25 0 1
lala 17 0.01875 first first 7 1 243 8 11.4275 1.49999690055847 -0.25 1 1
lala 10 0.6 first first 5 1 244 6.6 4.578 1.83999681472778 -0.25 1 1
lala 17 0.01875 second second 9 1 245 -8 -8.352501 0.879997491836548 0 1 1
lala 4 1.2 second second 23 1 246 8 9.440001 -2.40000009536743 0.25 1 1
lala 5 0.6 second first 17 1 247 -8 -8.84 -2.40000009536743 0.25 1 -1
lala 12 0.01875 second second 1 1 248 -8 -9.852501 -2.40000009536743 -0.25 1 1
lala 9 0.075 second first 14 1 249 8 4.605 -2.40000009536743 0 0 -1
lala 7 0.6 first first 2 1 250 -6.6 -6.156 1.43999695777893 -0.25 0 1
lala 6 0.3 first second 17 1 251 -8 -9.14 0.61999773979187 0.25 1 -1
lala 7 0.3 second first 8 1 252 -8 -4.08 0.859997510910034 0 0 -1
lala 14 0.6 first first 11 1 253 -6.6 -9.378 1.17999720573425 0 1 1
lala 13 0.01875 first first 1 1 254 -8 -9.833751 0.979997396469116 -0.25 1 1
lala 11 0.3 first first 5 1 255 6.6 4.278 0.879997491836548 -0.25 1 1
lala 10 0.3 first second 3 1 256 -6.6 -6.677999 1.03999733924866 -0.25 1 -1
lala 11 0.15 second second 3 1 257 -6.6 -6.828 -2.40000009536743 -0.25 1 1
lala 8 0.15 second first 8 1 258 -8 -4.23 0.959997415542603 0 0 -1
lala 7 0.3 first first 17 1 259 -8 -9.440001 1.0999972820282 0.25 1 1
lala 15 1.2 first first 19 1 260 -6.6 -4.578 1.59999680519104 0.25 1 1
lala 18 0.01875 first second 7 1 261 8 11.40875 0.639997720718384 -0.25 1 -1
lala 8 9.6 second second 18 1 262 -6.6 -21.156 2.49999618530273 0.25 0 1
lala 13 0.01875 first second 22 1 263 8 6.53625 4.99999380111694 0.25 0 -1
lala 15 0.3 first first 0 1 264 -8 -4.980001 2.31999635696411 -0.25 0 1
lala 8 1.2 first first 2 1 265 -6.6 -4.955999 0.739997625350952 -0.25 0 1
lala 9 0.15 first second 10 1 266 -6.6 -4.356 1.65999698638916 0 0 -1
lala 8 0.15 first second 17 1 267 -8 -9.290001 2.67999601364136 0.25 1 -1
lala 9 0.15 first first 8 1 268 -8 -4.380001 1.25999712944031 0 0 1
lala 9 0.075 first second 17 1 269 -8 -9.365001 4.45999431610107 0.25 1 -1
lala 10 76.8 first second 13 1 270 6.6 -146.022 0.519997835159302 0 1 -1
lala 13 2.4 first first 4 1 271 6.6 1.956 0.739997625350952 -0.25 0 1
lala 14 0.0375 first second 1 1 272 -8 -9.79625 4.75999402999878 -0.25 1 -1
lala 18 0.01875 first first 9 1 273 -8 -8.333751 3.51999521255493 0 1 1
lala 16 0.15 first second 15 1 274 8 4.94 3.23999547958374 0 1 -1
lala 12 0.075 first second 3 1 275 -6.6 -6.753 0.959997415542603 -0.25 1 -1
lala 9 0.6 first first 6 1 276 8 7.679999 1.19999718666077 -0.25 0 1
lala 10 0.3 first first 6 1 277 8 7.379999 0.559997797012329 -0.25 0 1
lala 13 0.0375 first second 3 1 278 -6.6 -6.7905 1.17999720573425 -0.25 1 -1
lala 16 0.15 first first 0 1 279 -8 -4.830001 1.83999681472778 -0.25 0 1
lala 19 0.0375 second second 9 1 280 -8 -8.29625 0.539997816085815 0 1 1
lala 10 0.075 second first 8 1 281 -8 -4.305001 -2.40000009536743 0 0 -1
lala 14 0.01875 first second 22 1 282 8 6.555 1.47999691963196 0.25 0 -1
lala 5 2.4 first second 23 1 283 8 7.04 0.939997434616089 0.25 1 -1
lala 6 1.2 first first 23 1 284 8 8.240001 0.639997720718384 0.25 1 1
lala 17 0.15 first first 15 1 285 8 5.09 2.45999622344971 0 1 1
lala 11 0.0375 second first 8 1 286 -8 -4.342501 -2.40000009536743 0 0 -1
lala 9 0.075 first second 20 1 287 6.6 6.531 1.11999726295471 0.25 0 -1
lala 16 1.2 first first 19 1 288 -6.6 -3.378 5.43999338150024 0.25 1 1
lala 10 0.0375 first second 20 1 289 6.6 6.5685 0.639997720718384 0.25 0 -1
lala 11 38.4 first second 13 1 290 6.6 -107.622 2.91999578475952 0 1 -1
lala 12 0.0375 first first 8 1 291 -8 -4.380001 0.819997549057007 0 0 1
lala 11 0.0375 first first 20 1 292 6.6 6.605999 0.439997911453247 0.25 0 1
lala 15 0.01875 first first 1 1 293 -8 -9.815001 0.839997529983521 -0.25 1 1
lala 19 0.009375 first second 7 1 294 8 11.41812 1.77999687194824 -0.25 1 -1
lala 10 0.3 first first 16 1 295 -8 -5.580001 0.61999773979187 0.25 0 1
lala 14 0.0375 first first 3 1 296 -6.6 -6.828 0.519997835159302 -0.25 1 1
lala 15 0.01875 first first 3 1 297 -6.6 -6.809249 1.91999673843384 -0.25 1 1
lala 10 0.0375 first first 14 1 298 8 4.6425 2.87999582290649 0 0 1
lala 12 0.3 first first 5 1 299 6.6 3.978 0.959997415542603 -0.25 1 1
lala 7 0.6 first second 23 1 300 8 7.640001 0.39999794960022 0.25 1 -1
lala 11 0.3 first first 6 1 301 8 7.079999 0.719997644424438 -0.25 0 1
lala 9 2.4 first second 2 1 302 -6.6 -2.555999 0.699997663497925 -0.25 0 -1
lala 18 0.075 first first 15 1 303 8 5.015 8.64006280899048 0 1 1
lala 13 0.01875 second first 8 1 304 -8 -4.36125 0.579997777938843 0 0 -1
lala 13 0.3 second first 5 1 305 6.6 3.678 1.11999726295471 -0.25 1 -1
lala 17 0.15 first first 0 1 306 -8 -4.680001 19.6403136253357 -0.25 0 1
lala 14 0.3 first second 21 1 307 6.6 5.178001 0.739997625350952 0.25 1 -1
lala 16 0.01875 first first 3 1 308 -6.6 -6.790499 2.51999616622925 -0.25 1 1
lala 14 2.4 first second 4 1 309 6.6 -0.4440002 1.7199969291687 -0.25 0 -1
lala 12 0.01875 first second 20 1 310 6.6 6.587249 0.61999773979187 0.25 0 -1
lala 14 0.15 second first 5 1 311 6.6 3.828 1.77999687194824 -0.25 1 -1
lala 19 0.075 second first 15 1 312 8 4.940001 1.05999732017517 0 1 -1
lala 18 0.15 second first 0 1 313 -8 -4.530001 -2.40000009536743 -0.25 0 -1
lala 16 0.009375 second second 1 1 314 -8 -9.805626 -2.40000009536743 -0.25 1 1
lala 15 0.15 first second 5 1 315 6.6 3.978 1.11999726295471 -0.25 1 -1
lala 15 0.15 first second 21 1 316 6.6 5.328001 0.979997396469116 0.25 1 -1
lala 17 1.2 first second 19 1 317 -6.6 -2.178 2.09999656677246 0.25 1 -1
lala 20 0.075 first first 9 1 318 -8 -8.221251 4.4999942779541 0 1 1
lala 17 0.01875 first second 3 1 319 -6.6 -6.771749 1.41999697685242 -0.25 1 -1
lala 13 0.3 second first 12 1 320 6.6 5.406 8.06004953384399 0 0 -1
lala 13 0.009375 second second 20 1 321 6.6 6.596624 -2.40000009536743 0.25 0 1
lala 10 0.15 first second 10 1 322 -6.6 -4.506 2.97999572753906 0 0 -1
lala 15 0.6 first second 11 1 323 -6.6 -8.778 2.69999599456787 0 1 -1
lala 11 0.3 second first 10 1 324 -6.6 -4.806 1.27999711036682 0 0 -1
lala 16 0.15 first second 21 1 325 6.6 5.478001 0.439997911453247 0.25 1 -1
lala 15 0.01875 first first 22 1 326 8 6.57375 0.339998006820679 0.25 0 1
lala 12 0.3 first first 6 1 327 8 6.779999 1.3999969959259 -0.25 0 1
lala 12 38.4 first second 13 1 328 6.6 -69.222 0.799997568130493 0 1 -1
lala 20 0.0375 first second 15 1 329 8 4.9775 5.09999370574951 0 1 -1
lala 16 0.009375 first second 22 1 330 8 6.564375 1.45999693870544 0.25 0 -1
lala 19 0.075 first second 0 1 331 -8 -4.605 3.95999479293823 -0.25 0 -1
lala 16 0.15 first second 5 1 332 6.6 4.128 2.01999664306641 -0.25 1 -1
lala 10 1.2 first first 2 1 333 -6.6 -3.755999 1.45999693870544 -0.25 0 1
lala 21 0.15 first first 9 1 334 -8 -8.071251 5.3799934387207 0 1 1
lala 20 0.009375 first first 7 1 335 8 11.4275 1.15999722480774 -0.25 1 1
lala 17 0.0046875 first first 22 1 336 8 6.569062 0.939997434616089 0.25 0 1
lala 13 0.6 first second 6 1 337 8 6.179999 4.17999458312988 -0.25 0 -1
lala 17 0.15 first first 21 1 338 6.6 5.628001 5.35999345779419 0.25 1 1
lala 18 0.075 first second 21 1 339 6.6 5.553001 1.01999735832214 0.25 1 -1
lala 21 0.0375 first first 15 1 340 8 5.015 3.01999568939209 0 1 1
lala 11 0.01875 first second 14 1 341 8 4.62375 0.499997854232788 0 0 -1
lala 19 0.0375 first second 21 1 342 6.6 5.590501 0.519997835159302 0.25 1 -1
lala 9 4.8 first first 18 1 343 -6.6 -16.356 4.53999423980713 0.25 0 1
lala 16 0.3 first second 11 1 344 -6.6 -9.078 0.839997529983521 0 1 -1
lala 18 0.009375 first first 3 1 345 -6.6 -6.781124 1.35999703407288 -0.25 1 1
lala 14 0.009375 first first 8 1 346 -8 -4.370625 0.99999737739563 0 0 1
lala 8 0.3 first second 23 1 347 8 7.940001 0.639997720718384 0.25 1 -1
lala 20 0.075 first first 0 1 348 -8 -4.68 4.45999431610107 -0.25 0 1
lala 22 0.01875 first second 15 1 349 8 4.99625 0.579997777938843 0 1 -1
lala 13 38.4 first first 13 1 350 6.6 -30.822 6.96002435684204 0 1 1
lala 14 19.2 first first 13 1 351 6.6 -50.022 0.479997873306274 0 1 1
lala 19 0.0046875 first second 3 1 352 -6.6 -6.776437 2.43999624252319 -0.25 1 -1
lala 12 0.009375 first second 14 1 353 8 4.633125 0.479997873306274 0 0 -1
lala 20 0.00234375 first first 3 1 354 -6.6 -6.77878 1.15999722480774 -0.25 1 1
lala 21 0.0046875 first first 7 1 355 8 11.42281 0.639997720718384 -0.25 1 1
lala 11 0.6 first second 2 1 356 -6.6 -3.155999 1.91999673843384 -0.25 0 -1
lala 15 0.0046875 first second 8 1 357 -8 -4.365938 0.739997625350952 0 0 -1
lala 21 0.0375 first first 0 1 358 -8 -4.6425 3.39999532699585 -0.25 0 1
lala 11 0.15 first second 16 1 359 -8 -5.430001 0.719997644424438 0.25 0 -1
lala 10 4.8 first second 18 1 360 -6.6 -11.556 7.00002527236938 0.25 0 -1
lala 14 0.0046875 first second 20 1 361 6.6 6.591937 0.539997816085815 0.25 0 -1
lala 22 0.0375 first second 0 1 362 -8 -4.605 4.21999454498291 -0.25 0 -1
lala 11 2.4 first second 18 1 363 -6.6 -13.956 1.73999691009521 0.25 0 -1
lala 22 0.0046875 first first 7 1 364 8 11.41812 1.51999688148499 -0.25 1 1
lala 15 0.00234375 first second 20 1 365 6.6 6.594281 1.97999668121338 0.25 0 -1
lala 10 0.075 first second 17 1 366 -8 -9.440001 1.31999707221985 0.25 1 -1
lala 12 0.6 first first 10 1 367 -6.6 -5.406 211.248818874359 0 0 1
lala 15 19.2 first first 13 1 368 6.6 -69.222 2.07999658584595 0 1 1
lala 13 0.3 first first 10 1 369 -6.6 -5.106 0.559997797012329 0 0 1
lala 12 0.3 second first 2 1 370 -6.6 -3.455999 0.519997835159302 -0.25 0 -1
lala 23 0.0046875 first first 7 1 371 8 11.41344 0.359997987747192 -0.25 1 1
lala 24 0.009375 first second 7 1 372 8 11.40406 0.519997835159302 -0.25 1 -1
lala 25 0.0046875 second second 7 1 373 8 11.40875 1.63999700546265 -0.25 1 1
lala 12 2.4 first first 18 1 374 -6.6 -16.356 0.719997644424438 0.25 0 1
lala 20 0.0375 first second 21 1 375 6.6 5.628001 1.43999695777893 0.25 1 -1
lala 13 0.009375 first first 14 1 376 8 4.6425 0.579997777938843 0 0 1
lala 21 0.001171875 first second 3 1 377 -6.6 -6.777608 1.75999689102173 -0.25 1 -1
lala 16 0.00234375 first second 8 1 378 -8 -4.368282 0.899997472763062 0 0 -1
lala 14 0.3 first first 6 1 379 8 6.479999 2.19999647140503 -0.25 0 1
lala 23 0.01875 first second 0 1 380 -8 -4.623751 0.919997453689575 -0.25 0 -1
lala 26 0.00234375 first second 7 1 381 8 11.40641 0.759997606277466 -0.25 1 -1
lala 14 0.15 first second 12 1 382 6.6 5.556 0.579997777938843 0 0 -1
lala 17 0.3 first first 11 1 383 -6.6 -9.378 1.49999690055847 0 1 1
lala 17 0.3 first second 5 1 384 6.6 4.428 0.079998254776001 -0.25 1 -1
lala 15 0.15 first second 6 1 385 8 6.329999 0.119998216629028 -0.25 0 -1
lala 9 0.3 first second 23 1 386 8 8.240001 0.579997777938843 0.25 1 -1
lala 18 0.15 second second 11 1 387 -6.6 -9.228001 0.359997987747192 0 1 1
lala 17 0.00234375 first second 8 1 388 -8 -4.370625 0.379997968673706 0 0 -1
lala 19 0.15 first first 11 1 389 -6.6 -9.078001 2.159996509552 0 1 1
lala 16 19.2 first first 13 1 390 6.6 -88.422 0.219998121261597 0 1 1
lala 24 0.01875 first first 0 1 391 -8 -4.642501 1.81999683380127 -0.25 0 1
lala 20 0.15 first first 11 1 392 -6.6 -8.928001 1.21999716758728 0 1 1
lala 25 0.009375 first second 0 1 393 -8 -4.633126 1.95999670028687 -0.25 0 -1
lala 16 0.00234375 first second 20 1 394 6.6 6.596624 0.939997434616089 0.25 0 -1
lala 17 0.009375 second second 1 1 395 -8 -9.796251 0.579997777938843 -0.25 1 1
lala 26 0.0046875 second first 0 1 396 -8 -4.637813 -2.40000009536743 -0.25 0 -1
lala 13 0.3 first first 2 1 397 -6.6 -3.755999 2.49999618530273 -0.25 0 1
lala 17 0.00234375 first second 20 1 398 6.6 6.598968 0.859997510910034 0.25 0 -1
lala 15 0.15 first second 12 1 399 6.6 5.706 0.319998025894165 0 0 -1
lala 21 0.3 first first 11 1 400 -6.6 -8.628001 1.11999726295471 0 1 1
lala 14 0.3 first second 10 1 401 -6.6 -4.806 1.61999702453613 0 0 -1
lala 18 0.0046875 first first 20 1 402 6.6 6.603655 0.739997625350952 0.25 0 1
lala 23 0.009375 second first 15 1 403 8 5.005625 0.939997434616089 0 1 -1
lala 24 0.009375 first second 15 1 404 8 5.015 1.99999666213989 0 1 -1
lala 16 0.15 first second 12 1 405 6.6 5.856 0.439997911453247 0 0 -1
lala 16 0.075 first first 6 1 406 8 6.404999 0.779997587203979 -0.25 0 1
lala 12 0.075 first second 16 1 407 -8 -5.505001 0.559997797012329 0.25 0 -1
lala 11 0.075 first first 17 1 408 -8 -9.515 0.599997758865356 0.25 1 1
lala 17 0.0375 first first 6 1 409 8 6.367499 0.479997873306274 -0.25 0 1
lala 25 0.009375 first second 15 1 410 8 5.024375 0.719997644424438 0 1 -1
lala 18 0.0375 first second 6 1 411 8 6.329999 0.419997930526733 -0.25 0 -1
lala 19 0.00234375 first first 20 1 412 6.6 6.601312 1.13999724388123 0.25 0 1
lala 13 0.075 first second 16 1 413 -8 -5.580001 0.139998197555542 0.25 0 -1
lala 15 0.15 first first 10 1 414 -6.6 -4.956 0.459997892379761 0 0 1
lala 13 1.2 second second 18 1 415 -6.6 -15.156 -2.40000009536743 0.25 0 1
lala 18 0.6 first second 5 1 416 6.6 5.028 0.99999737739563 -0.25 1 -1
lala 14 0.0046875 first first 14 1 417 8 4.637813 0.419997930526733 0 0 1
lala 26 0.01875 second first 15 1 418 8 5.043126 -2.40000009536743 0 1 -1
lala 27 0.0375 second first 15 1 421 8 5.080626 -2.40000009536743 0 1 -1
lala 27 0.0046875 second first 0 1 422 -8 -4.6425 -2.40000009536743 -0.25 0 -1
lala 18 0.009375 first first 1 1 423 -8 -9.786877 0.659997701644897 -0.25 1 1
lala 17 0.3 first second 12 1 424 6.6 6.156 2.11999654769897 0 0 -1
lala 18 0.6 first first 12 1 425 6.6 6.756 0.819997549057007 0 0 1
lala 17 38.4 second second 13 1 426 6.6 -126.822 2.67999601364136 0 1 1
lala 19 0.01875 second first 6 1 427 8 6.348749 -2.40000009536743 -0.25 0 -1
lala 18 0.00234375 first second 22 1 428 8 6.566719 2.75999593734741 0.25 0 -1
lala 19 0.001171875 first second 22 1 429 8 6.567891 0.39999794960022 0.25 0 -1
lala 28 0.0046875 first first 0 1 430 -8 -4.647188 0.879997491836548 -0.25 0 1
lala 22 0.6 first second 11 1 431 -6.6 -8.028001 2.53999614715576 0 1 -1
lala 18 76.8 first first 13 1 432 6.6 -203.622 2.75999593734741 0 1 1
lala 12 0.0375 first second 17 1 433 -8 -9.4775 0.579997777938843 0.25 1 -1
lala 18 0.00234375 second first 8 1 434 -8 -4.372969 0.579997777938843 0 0 -1
lala 15 0.0046875 second first 14 1 435 8 4.633125 -2.40000009536743 0 0 -1
lala 19 153.6 second second 13 1 437 6.6 -357.222 -2.40000009536743 0 1 1
lala 10 0.3 first second 23 1 438 8 8.540001 0.879997491836548 0.25 1 -1
lala 28 0.075 first second 15 1 439 8 5.155625 0.459997892379761 0 1 -1
lala 21 0.0375 first second 21 1 440 6.6 5.665501 0.679997682571411 0.25 1 -1
lala 19 0.0046875 first second 8 1 441 -8 -4.377656 0.99999737739563 0 0 -1
lala 20 0.00234375 first first 20 1 442 6.6 6.598968 1.5399968624115 0.25 0 1
lala 19 1.2 first second 5 1 443 6.6 6.228001 0.699997663497925 -0.25 1 -1
lala 14 0.15 first second 2 1 444 -6.6 -3.605999 0.639997720718384 -0.25 0 -1
lala 20 0.001171875 first second 22 1 445 8 6.569063 0.339998006820679 0.25 0 -1
lala 21 0.001171875 first first 22 1 446 8 6.570235 0.899997472763062 0.25 0 1
lala 21 0.00234375 first first 20 1 447 6.6 6.596624 0.379997968673706 0.25 0 1
lala 22 0.075 first second 21 1 448 6.6 5.740501 0.819997549057007 0.25 1 -1
lala 14 1.2 first first 18 1 449 -6.6 -13.956 2.31999635696411 0.25 0 1
lala 19 0.3 first second 12 1 450 6.6 6.456 0.339998006820679 0 0 -1
lala 20 0.009375 first first 8 1 451 -8 -4.387032 0.499997854232788 0 0 1
lala 22 0.0005859375 first first 3 1 452 -6.6 -6.778194 0.719997644424438 -0.25 1 1
lala 15 1.2 first second 4 1 453 6.6 0.7559998 0.759997606277466 -0.25 0 -1
lala 11 0.6 first second 23 1 454 8 9.140001 0.439997911453247 0.25 1 -1
lala 29 0.15 second first 15 1 456 8 5.305625 1.79999685287476 0 1 -1
lala 18 0.6 second first 19 1 457 -6.6 -2.778 -2.40000009536743 0.25 1 -1
lala 23 0.0002929688 first second 3 1 458 -6.6 -6.777902 1.31999707221985 -0.25 1 -1
lala 16 0.075 first second 10 1 459 -6.6 -4.881 1.13999724388123 0 0 -1
lala 16 0.00234375 second first 14 1 460 8 4.635469 0.799997568130493 0 0 -1
lala 23 0.15 first second 21 1 461 6.6 5.890501 0.61999773979187 0.25 1 -1
lala 24 0.0001464844 first first 3 1 462 -6.6 -6.778048 0.599997758865356 -0.25 1 1
lala 17 0.0375 first second 10 1 463 -6.6 -4.9185 1.05999732017517 0 0 -1
lala 24 0.3 first first 21 1 464 6.6 6.190501 0.879997491836548 0.25 1 1
lala 23 0.3 first second 11 1 465 -6.6 -8.328001 1.59999680519104 0 1 -1
lala 25 7.324219E-05 second second 3 1 466 -6.6 -6.777975 -2.40000009536743 -0.25 1 1
lala 20 2.4 first first 5 1 467 6.6 8.628 1.83999681472778 -0.25 1 1
lala 20 0.01875 first first 6 1 468 8 6.367499 1.19999718666077 -0.25 0 1
lala 21 1.2 first second 5 1 469 6.6 7.428 2.35999631881714 -0.25 1 -1
lala 30 0.3 first first 15 1 470 8 5.605626 3.13999557495117 0 1 1
lala 21 0.0046875 first second 8 1 471 -8 -4.382344 0.879997491836548 0 0 -1
lala 22 0.6 first first 5 1 472 6.6 8.028001 5.11999368667603 -0.25 1 1
lala 31 0.15 second first 15 1 474 8 5.455626 1.3999969959259 0 1 -1
lala 22 0.3 second second 9 1 475 -8 -7.771251 0.61999773979187 0 1 1
lala 18 0.0375 second first 10 1 476 -6.6 -4.956 1.3999969959259 0 0 -1
lala 16 1.2 second first 4 1 477 6.6 1.956 -2.40000009536743 -0.25 0 -1
lala 15 0.075 first second 2 1 478 -6.6 -3.680999 1.07999730110168 -0.25 0 -1
lala 12 1.2 first first 23 1 479 8 10.34 66.3204817771912 0.25 1 1
lala 14 0.075 first second 16 1 480 -8 -5.655001 0.599997758865356 0.25 0 -1
lala 20 307.2 first first 13 1 481 6.6 -664.422 0.359997987747192 0 1 1
lala 19 0.0375 first second 10 1 482 -6.6 -4.9935 1.03999733924866 0 0 -1
lala 25 0.15 first first 21 1 483 6.6 6.040501 0.819997549057007 0.25 1 1
lala 15 1.2 first first 18 1 484 -6.6 -12.756 0.499997854232788 0.25 0 1
lala 21 614.4 first second 13 1 485 6.6 -1278.822 0.279998064041138 0 1 -1
lala 22 0.0046875 first first 20 1 486 6.6 6.591937 0.359997987747192 0.25 0 1
lala 17 0.00234375 first first 14 1 487 8 4.637813 0.359997987747192 0 0 1
lala 20 0.15 first second 12 1 488 6.6 6.606 0.439997911453247 0 0 -1
lala 23 0.6 first second 9 1 490 -8 -7.171251 1.07999730110168 0 1 -1
lala 16 0.075 first second 2 1 491 -6.6 -3.755999 0.899997472763062 -0.25 0 -1
lala 21 0.15 first first 12 1 492 6.6 6.756 0.839997529983521 0 0 1
lala 13 0.01875 first first 17 1 493 -8 -9.49625 3.07999563217163 0.25 1 1
lala 20 0.075 first second 10 1 494 -6.6 -5.0685 1.25999712944031 0 0 -1
lala 15 0.15 first first 16 1 495 -8 -5.805001 0.519997835159302 0.25 0 1
lala 32 0.075 second first 15 1 496 8 5.530625 1.65999698638916 0 1 -1
lala 19 0.01875 first second 1 1 497 -8 -9.768126 1.17999720573425 -0.25 1 -1
lala 17 0.075 first first 2 1 498 -6.6 -3.830999 0.99999737739563 -0.25 0 1
lala 14 0.009375 first second 17 1 499 -8 -9.486876 2.85999584197998 0.25 1 -1
lala 29 0.00234375 first first 0 1 500 -8 -4.644844 0.439997911453247 -0.25 0 1
lala 18 0.0375 first second 2 1 501 -6.6 -3.793499 0.559997797012329 -0.25 0 -1
lala 18 0.001171875 first second 14 1 502 8 4.636641 0.259998083114624 0 0 -1
lala 19 0.0005859375 first second 14 1 503 8 4.637227 0.159998178482056 0 0 -1
lala 26 0.15 first first 21 1 505 6.6 5.890501 1.43999695777893 0.25 1 1
lala 33 0.075 first first 15 1 506 8 5.605625 0.519997835159302 0 1 1
lala 22 307.2 first first 13 1 508 6.6 -971.622 2.2999963760376 0 1 1
lala 23 153.6 first second 13 1 509 6.6 -1125.222 1.33999705314636 0 1 -1
lala 19 0.6 first second 19 1 511 -6.6 -3.378 5.49999332427979 0.25 1 -1
lala 22 0.075 first first 12 1 512 6.6 6.681 1.89999675750732 0 0 1
lala 17 1.2 second first 4 1 513 6.6 3.156 1.27999711036682 -0.25 0 -1
lala 22 0.0005859375 first second 22 1 514 8 6.569649 1.63999700546265 0.25 0 -1
lala 21 0.15 first second 10 1 515 -6.6 -5.2185 0.579997777938843 0 0 -1
lala 23 0.009375 second first 20 1 516 6.6 6.582562 0.579997777938843 0.25 0 -1
lala 23 0.0002929688 first second 22 1 517 8 6.569942 0.339998006820679 0.25 0 -1
lala 20 0.009375 first first 1 1 518 -8 -9.777501 1.15999722480774 -0.25 1 1
lala 21 0.0046875 first second 1 1 519 -8 -9.772814 3.13999557495117 -0.25 1 -1
lala 20 0.0005859375 first first 14 1 520 8 4.637813 1.05999732017517 0 0 1
lala 13 0.6 first second 23 1 521 8 9.740001 2.35999631881714 0.25 1 -1
lala 24 0.0046875 first first 20 1 522 6.6 6.587249 0.719997644424438 0.25 0 1
lala 24 76.8 first second 13 1 523 6.6 -1048.422 1.73999691009521 0 1 -1
lala 22 0.00234375 first second 8 1 526 -8 -4.384688 1.59999680519104 0 0 -1
lala 15 0.0046875 first second 17 1 527 -8 -9.491563 0.459997892379761 0.25 1 -1
lala 18 2.4 first first 4 1 528 6.6 5.556 2.159996509552 -0.25 0 1
lala 27 0.15 first first 21 1 529 6.6 5.740501 0.539997816085815 0.25 1 1
lala 23 0.075 first second 12 1 530 6.6 6.606 0.699997663497925 0 0 -1
lala 24 0.0002929688 first first 22 1 531 8 6.570234 0.759997606277466 0.25 0 1
lala 16 0.075 first second 16 1 532 -8 -5.730001 0.839997529983521 0.25 0 -1
lala 19 1.2 first first 4 1 533 6.6 4.356 0.679997682571411 -0.25 0 1
lala 26 7.324219E-05 first first 3 1 534 -6.6 -6.777901 0.479997873306274 -0.25 1 1
lala 23 0.3 first second 5 1 535 6.6 7.728001 0.179998159408569 -0.25 1 -1
lala 22 0.00234375 first first 1 1 536 -8 -9.775158 0.339998006820679 -0.25 1 1
lala 24 0.0375 first second 12 1 537 6.6 6.6435 0.739997625350952 0 0 -1
lala 25 0.0001464844 first second 22 1 538 8 6.570088 3.05999565124512 0.25 0 -1
lala 23 0.001171875 first second 1 1 539 -8 -9.773986 0.699997663497925 -0.25 1 -1
lala 25 0.00234375 first second 20 1 540 6.6 6.584906 0.419997930526733 0.25 0 -1
lala 26 7.324219E-05 first first 22 1 541 8 6.570161 1.17999720573425 0.25 0 1
lala 24 0.0005859375 second second 1 1 542 -8 -9.774571 0.899997472763062 -0.25 1 1
lala 25 76.8 second second 13 1 543 6.6 -971.622 -2.40000009536743 0 1 1
lala 19 0.01875 first second 2 1 544 -6.6 -3.812249 0.739997625350952 -0.25 0 -1
lala 21 0.009375 first second 6 1 545 8 6.358124 0.939997434616089 -0.25 0 -1
lala 28 0.3 first second 21 1 546 6.6 5.440501 0.61999773979187 0.25 1 -1
lala 16 2.4 first first 18 1 547 -6.6 -10.356 0.719997644424438 0.25 0 1
lala 20 0.6 first first 19 1 548 -6.6 -3.978 0.319998025894165 0.25 1 1
lala 25 0.0375 second first 12 1 549 6.6 6.681 0.719997644424438 0 0 -1
lala 17 0.0375 first second 16 1 550 -8 -5.767501 1.57999682426453 0.25 0 -1
lala 26 0.001171875 first first 20 1 551 6.6 6.586078 1.0999972820282 0.25 0 1
lala 26 0.0375 first first 12 1 552 6.6 6.7185 0.819997549057007 0 0 1
lala 14 0.3 first first 23 1 553 8 10.04 0.479997873306274 0.25 1 1
lala 24 0.15 first first 5 1 554 6.6 7.878001 1.13999724388123 -0.25 1 1
lala 25 0.0002929688 first first 1 1 555 -8 -9.774279 0.259998083114624 -0.25 1 1
lala 15 0.15 first second 23 1 556 8 9.890001 0.679997682571411 0.25 1 -1
lala 23 0.00234375 second first 8 1 557 -8 -4.387032 -2.40000009536743 0 0 -1
lala 27 0.01875 first first 12 1 559 6.6 6.69975 0.459997892379761 0 0 1
lala 17 4.8 first first 18 1 560 -6.6 -5.555999 1.05999732017517 0.25 0 1
lala 24 0.3 first second 11 1 561 -6.6 -8.628001 0.659997701644897 0 1 -1
lala 22 0.0046875 first first 6 1 562 8 6.362812 0.419997930526733 -0.25 0 1
lala 24 0.00234375 first second 8 1 563 -8 -4.389375 0.739997625350952 0 0 -1
lala 20 1.2 first first 4 1 564 6.6 3.156 0.559997797012329 -0.25 0 1
lala 18 9.6 first second 18 1 566 -6.6 4.044002 0.479997873306274 0.25 0 -1
lala 21 1.2 first second 4 1 567 6.6 1.956 0.459997892379761 -0.25 0 -1
lala 23 0.00234375 first first 6 1 568 8 6.360468 2.2999963760376 -0.25 0 1
lala 34 0.0375 first second 15 1 569 8 5.568125 1.49999690055847 0 1 -1
lala 29 0.15 first second 21 1 570 6.6 5.590501 0.439997911453247 0.25 1 -1
lala 25 0.075 first first 5 1 572 6.6 7.803001 0.559997797012329 -0.25 1 1
lala 16 0.075 first second 23 1 573 8 9.965001 0.419997930526733 0.25 1 -1
lala 19 4.8 first second 18 1 574 -6.6 -0.7559986 1.89999675750732 0.25 0 -1
lala 28 0.01875 first second 12 1 576 6.6 6.681 1.27999711036682 0 0 -1
lala 26 0.075 first first 5 1 577 6.6 7.728001 0.639997720718384 -0.25 1 1
lala 30 0.15 first second 21 1 578 6.6 5.740501 30.6805663108826 0.25 1 -1
lala 22 0.6 first first 4 1 579 6.6 2.556 0.23999810218811 -0.25 0 1
lala 21 0.3 first second 19 1 580 -6.6 -3.678 0.379997968673706 0.25 1 -1
lala 17 0.075 first first 23 1 581 8 10.04 0.01999831199646 0.25 1 1
lala 27 0.075 first second 5 1 582 6.6 7.653001 0.23999810218811 -0.25 1 -1
lala 26 0.0002929688 second second 1 1 583 -8 -9.773986 -2.40000009536743 -0.25 1 1
lala 24 0.00234375 first first 6 1 585 8 6.358124 0.519997835159302 -0.25 0 1
lala 18 0.0375 first first 16 1 586 -8 -5.805001 0.01999831199646 0.25 0 1
lala 24 0.3 first first 9 1 587 -8 -7.471251 0.199998140335083 0 1 1
lala 21 0.0002929688 first first 14 1 588 8 4.63752 0.519997835159302 0 0 1
lala 22 0.3 first first 10 1 593 -6.6 -5.5185 0.299998044967651 0 0 1
lala 25 0.15 first first 9 1 594 -8 -7.321251 1.37999701499939 0 1 1
lala 35 0.01875 first second 15 1 595 8 5.586875 1.47999691963196 0 1 -1
lala 23 0.15 first second 10 1 597 -6.6 -5.3685 0.799997568130493 0 0 -1
lala 25 0.3 first second 11 1 598 -6.6 -8.928001 0.299998044967651 0 1 -1
lala 28 0.0375 first first 5 1 599 6.6 7.690501 0.439997911453247 -0.25 1 1
lala 22 0.15 first second 19 1 600 -6.6 -3.828 0.699997663497925 0.25 1 -1
lala 19 0.01875 first first 16 1 601 -8 -5.786251 1.13999724388123 0.25 0 1
lala 23 0.3 first second 4 1 602 6.6 2.256 0.459997892379761 -0.25 0 -1
lala 29 0.009375 first second 12 1 603 6.6 6.690375 0.439997911453247 0 0 -1
lala 20 4.8 second first 18 1 604 -6.6 -5.555999 -2.40000009536743 0.25 0 -1
lala 29 0.01875 first first 5 1 605 6.6 7.671751 0.01999831199646 -0.25 1 1
lala 20 0.01875 first second 2 1 606 -6.6 -3.830999 0.719997644424438 -0.25 0 -1
lala 26 0.6 first second 11 1 607 -6.6 -9.528002 0.359997987747192 0 1 -1
lala 24 0.15 first second 4 1 608 6.6 2.406 0.939997434616089 -0.25 0 -1
lala 22 0.0002929688 first second 14 1 610 8 4.637227 0.419997930526733 0 0 -1
lala 30 0.01875 first first 5 1 611 6.6 7.653001 2.45999622344971 -0.25 1 1
lala 26 38.4 first second 13 1 612 6.6 -1010.022 0.599997758865356 0 1 -1
lala 31 0.15 first first 21 1 613 6.6 5.890501 1.45999693870544 0.25 1 1
lala 23 0.15 first second 19 1 614 -6.6 -3.978 0.539997816085815 0.25 1 -1
lala 25 0.0046875 first first 8 1 616 -8 -4.394063 0.479997873306274 0 0 1
lala 32 0.075 first second 21 1 617 6.6 5.815501 0.359997987747192 0.25 1 -1
lala 16 0.0046875 first second 17 1 618 -8 -9.49625 0.499997854232788 0.25 1 -1
lala 27 1.2 second first 11 1 619 -6.6 -10.728 0.079998254776001 0 1 -1
lala 21 4.8 second first 18 1 622 -6.6 -10.356 -2.40000009536743 0.25 0 -1
lala 18 0.0375 second second 23 1 624 8 10.0025 -2.40000009536743 0.25 1 1
lala 26 0.15 second second 9 1 625 -8 -7.171251 -2.40000009536743 0 1 1
lala 25 0.00234375 first second 6 1 626 8 6.355781 0.959997415542603 -0.25 0 -1
lala 27 0.15 first second 9 1 627 -8 -7.021251 0.939997434616089 0 1 -1
lala 31 0.01875 first second 5 1 628 6.6 7.634251 2.09999656677246 -0.25 1 -1
lala 24 0.075 first second 10 1 629 -6.6 -5.4435 0.499997854232788 0 0 -1
lala 20 0.01875 first second 16 1 630 -8 -5.7675 0.739997625350952 0.25 0 -1
lala 21 0.009375 first first 16 1 632 -8 -5.776875 0.559997797012329 0.25 0 1
lala 23 0.0001464844 first first 14 1 633 8 4.637373 1.29999709129334 0 0 1
lala 22 9.6 first second 18 1 634 -6.6 -19.956 2.13999652862549 0.25 0 -1
lala 17 0.0046875 second first 17 1 635 -8 -9.500937 -2.40000009536743 0.25 1 -1
lala 18 0.009375 first first 17 1 636 -8 -9.510312 0.579997777938843 0.25 1 1
lala 32 0.009375 first second 5 1 637 6.6 7.643626 1.13999724388123 -0.25 1 -1
lala 21 0.01875 first first 2 1 638 -6.6 -3.849749 1.35999703407288 -0.25 0 1
lala 19 0.0046875 first first 17 1 639 -8 -9.505625 2.03999662399292 0.25 1 1
lala 33 0.0375 first first 21 1 640 6.6 5.853001 1.83999681472778 0.25 1 1
lala 33 0.009375 first first 5 1 642 6.6 7.653001 0.319998025894165 -0.25 1 1
lala 22 0.0046875 first first 16 1 644 -8 -5.772188 2.57999610900879 0.25 0 1
lala 22 0.009375 first second 2 1 645 -6.6 -3.840374 0.379997968673706 -0.25 0 -1
lala 23 19.2 first first 18 1 646 -6.6 -39.156 0.419997930526733 0.25 0 1
lala 24 0.15 first second 19 1 647 -6.6 -4.128 0.379997968673706 0.25 1 -1
lala 25 0.15 first first 4 1 649 6.6 2.556 1.01999735832214 -0.25 0 1
lala 26 0.075 second first 4 1 650 6.6 2.481 0.539997816085815 -0.25 0 -1
lala 34 0.0046875 second second 5 1 652 6.6 7.648314 1.8599967956543 -0.25 1 1
lala 25 0.075 second second 10 1 653 -6.6 -5.518499 3.77999496459961 0 0 1
lala 23 0.0046875 first second 2 1 654 -6.6 -3.845062 2.81999588012695 -0.25 0 -1
lala 30 0.009375 first second 12 1 655 6.6 6.69975 0.419997930526733 0 0 -1
lala 19 0.0375 first first 23 1 656 8 9.965 0.139998197555542 0.25 1 1
lala 26 0.001171875 first second 6 1 657 8 6.356953 1.21999716758728 -0.25 0 -1
lala 24 7.324219E-05 first second 14 1 658 8 4.6373 0.439997911453247 0 0 -1
lala 28 2.4 first second 11 1 659 -6.6 -13.128 0.499997854232788 0 1 -1
lala 24 9.6 first first 18 1 660 -6.6 -29.556 1.75999689102173 0.25 0 1
lala 31 0.009375 first second 12 1 661 6.6 6.709125 2.45999622344971 0 0 -1
lala 34 0.01875 second first 21 1 662 6.6 5.834251 -2.40000009536743 0.25 1 -1
lala 28 0.075 first second 9 1 663 -8 -7.096251 0.819997549057007 0 1 -1
lala 26 0.00234375 first second 8 1 666 -8 -4.391719 0.99999737739563 0 0 -1
lala 29 4.8 first first 11 1 668 -6.6 -17.928 3.15999555587769 0 1 1
lala 29 0.075 first second 9 1 670 -8 -7.17125 0.539997816085815 0 1 -1
lala 23 0.0046875 first second 16 1 671 -8 -5.767501 0.279998064041138 0.25 0 -1
lala 20 0.0046875 first second 17 1 672 -8 -9.500937 0.959997415542603 0.25 1 -1
lala 27 19.2 first first 13 1 673 6.6 -990.822 0.199998140335083 0 1 1
lala 32 0.01875 first second 12 1 674 6.6 6.727875 0.819997549057007 0 0 -1
lala 20 0.0375 second second 23 1 675 8 9.9275 -2.40000009536743 0.25 1 1
lala 24 0.00234375 first second 16 1 676 -8 -5.769845 0.479997873306274 0.25 0 -1
lala 26 0.0375 first second 10 1 677 -6.6 -5.480999 0.759997606277466 0 0 -1
lala 28 9.6 first second 13 1 678 6.6 -1000.422 0.519997835159302 0 1 -1
lala 35 0.0046875 first first 5 1 679 6.6 7.643626 1.07999730110168 -0.25 1 1
lala 27 0.0375 first first 4 1 680 6.6 2.5185 0.899997472763062 -0.25 0 1
lala 21 0.075 first first 23 1 682 8 9.8525 3.15999555587769 0.25 1 1
lala 21 0.00234375 first second 17 1 683 -8 -9.503282 0.439997911453247 0.25 1 -1
lala 29 4.8 second second 13 1 686 6.6 -995.622 0.559997797012329 0 1 1
lala 28 0.01875 second first 4 1 687 6.6 2.49975 -2.40000009536743 -0.25 0 -1
lala 22 0.00234375 second second 17 1 688 -8 -9.505626 0.559997797012329 0.25 1 1
lala 24 0.0046875 first second 2 1 689 -6.6 -3.849749 0.679997682571411 -0.25 0 -1
lala 25 0.0046875 first second 2 1 690 -6.6 -3.854437 0.599997758865356 -0.25 0 -1
lala 25 0.3 first second 19 1 691 -6.6 -4.428 0.699997663497925 0.25 1 -1
lala 30 2.4 first second 11 1 693 -6.6 -15.528 0.939997434616089 0 1 -1
lala 25 0.00234375 first second 16 1 695 -8 -5.772188 38.4807448387146 0.25 0 -1
lala 26 0.009375 first first 2 1 696 -6.6 -3.863812 0.159998178482056 -0.25 0 1
lala 29 0.009375 first second 4 1 697 6.6 2.509125 0.559997797012329 -0.25 0 -1
lala 30 2.4 first second 13 1 698 6.6 -998.022 1.27999711036682 0 1 -1
lala 33 0.0375 second second 12 1 699 6.6 6.765375 -2.40000009536743 0 0 1
lala 35 0.009375 first second 21 1 700 6.6 5.843626 0.979997396469116 0.25 1 -1
lala 25 9.6 first second 18 1 701 -6.6 -19.956 0.359997987747192 0.25 0 -1
lala 27 0.01875 first first 10 1 703 -6.6 -5.49975 0.739997625350952 0 0 1
lala 31 1.2 first first 11 1 706 -6.6 -16.728 0.439997911453247 0 1 1
lala 30 0.009375 first first 4 1 708 6.6 2.5185 0.799997568130493 -0.25 0 1
lala 26 0.6 second first 19 1 710 -6.6 -5.028 -2.40000009536743 0.25 1 -1
lala 31 0.0046875 first second 4 1 711 6.6 2.513813 0.439997911453247 -0.25 0 -1
lala 30 0.075 first first 9 1 713 -8 -7.24625 0.559997797012329 0 1 1
lala 31 0.0375 second second 9 1 715 -8 -7.20875 0.359997987747192 0 1 1
lala 34 0.01875 first first 12 1 716 6.6 6.746625 0.339998006820679 0 0 1
lala 32 0.00234375 first second 4 1 718 6.6 2.516156 0.39999794960022 -0.25 0 -1
lala 35 0.01875 first first 12 1 720 6.6 6.727875 0.279998064041138 0 0 1
lala 33 0.00234375 first second 4 1 722 6.6 2.5185 0.499997854232788 -0.25 0 -1
lala 31 1.2 first first 13 1 723 6.6 -996.822 1.13999724388123 0 1 1
lala 26 0.00234375 first second 16 1 724 -8 -5.774532 1.15999722480774 0.25 0 -1
lala 32 0.6 first first 13 1 727 6.6 -997.422 0.739997625350952 0 1 1
lala 32 0.0375 first second 9 1 729 -8 -7.17125 1.0999972820282 0 1 -1
lala 32 0.6 second second 11 1 730 -6.6 -16.128 0.39999794960022 0 1 1
lala 23 0.001171875 second second 17 1 731 -8 -9.504454 -2.40000009536743 0.25 1 1
lala 27 1.2 first second 19 1 733 -6.6 -6.228 0.799997568130493 0.25 1 -1
lala 26 4.8 first second 18 1 737 -6.6 -24.756 0.499997854232788 0.25 0 -1
lala 25 3.66211E-05 second first 14 1 739 8 4.637337 1.21999716758728 0 0 -1
lala 26 3.66211E-05 second first 14 1 741 8 4.637373 0.819997549057007 0 0 -1
lala 33 0.01875 first first 9 1 743 -8 -7.190001 0.699997663497925 0 1 1
lala 24 0.001171875 first first 17 1 744 -8 -9.503282 0.379997968673706 0.25 1 1
lala 25 0.001171875 first first 17 1 749 -8 -9.50211 57.4411787986755 0.25 1 1
lala 28 2.4 first first 19 1 750 -6.6 -8.628 1.29999709129334 0.25 1 1
lala 26 0.00234375 first second 17 1 752 -8 -9.499765 1.01999735832214 0.25 1 -1
lala 29 1.2 first first 19 1 755 -6.6 -7.428 1.45999693870544 0.25 1 1
lala 33 0.6 first first 11 1 756 -6.6 -15.528 0.579997777938843 0 1 1
lala 34 0.009375 first second 9 1 762 -8 -7.180625 0.779997587203979 0 1 -1
lala 30 1.2 first second 19 1 764 -6.6 -6.228001 0.659997701644897 0.25 1 -1
lala 27 4.8 first second 18 1 765 -6.6 -29.556 0.679997682571411 0.25 0 -1
lala 28 0.009375 second first 10 1 766 -6.6 -5.490375 -2.40000009536743 0 0 -1
lala 31 0.6 second second 19 1 769 -6.6 -6.828001 0.479997873306274 0.25 1 1
lala 32 0.3 first first 19 1 770 -6.6 -6.528 1.8599967956543 0.25 1 1
lala 33 0.3 first first 19 1 774 -6.6 -6.228 0.419997930526733 0.25 1 1
lala 28 4.8 first first 18 1 775 -6.6 -34.356 0.379997968673706 0.25 0 1
lala 29 2.4 first first 18 1 776 -6.6 -31.956 0.499997854232788 0.25 0 1
lala 30 2.4 first second 18 1 778 -6.6 -29.556 1.37999701499939 0.25 0 -1
lala 31 1.2 second second 18 1 780 -6.6 -30.756 0.61999773979187 0.25 0 1
lala 22 0.15 first second 23 1 781 8 9.7025 0.919997453689575 0.25 1 -1
lala 34 0.3 first second 19 1 782 -6.6 -5.928 1.59999680519104 0.25 1 -1
lala 29 0.0046875 first second 10 1 784 -6.6 -5.495062 1.55999684333801 0 0 -1
lala 35 0.15 first second 19 1 785 -6.6 -6.078 0.599997758865356 0.25 1 -1
lala 33 0.6 first second 13 1 786 6.6 -998.022 0.699997663497925 0 1 -1
lala 23 0.075 second first 23 1 787 8 9.7775 1.51999688148499 0.25 1 -1
lala 35 0.0046875 second first 9 1 790 -8 -7.185313 -2.40000009536743 0 1 -1
lala 24 0.075 first first 23 1 794 8 9.8525 0.699997663497925 0.25 1 1
lala 25 0.0375 first first 23 1 795 8 9.815 0.479997873306274 0.25 1 1
lala 34 0.6 first first 11 1 796 -6.6 -14.928 0.01999831199646 0 1 1
lala 30 0.0046875 first first 10 1 800 -6.6 -5.499749 0.359997987747192 0 0 1
lala 31 0.00234375 second second 10 1 801 -6.6 -5.497406 0.699997663497925 0 0 1
lala 32 0.00234375 first second 10 1 804 -6.6 -5.495062 1.95999670028687 0 0 -1
lala 26 0.0375 first first 23 1 806 8 9.777499 1.11999726295471 0.25 1 1
lala 34 0.3 first first 13 1 810 6.6 -997.722 0.01999831199646 0 1 1
lala 32 0.6 first second 18 1 811 -6.6 -30.156 0.719997644424438 0.25 0 -1
lala 27 0.0375 first second 23 1 814 8 9.739999 0.519997835159302 0.25 1 -1
lala 35 1.2 first second 11 1 818 -6.6 -13.728 0.479997873306274 0 1 -1
lala 33 0.3 second second 18 1 819 -6.6 -30.456 0.559997797012329 0.25 0 1
lala 35 0.15 second second 13 1 821 6.6 -997.872 0.779997587203979 0 1 1
lala 34 0.15 second second 18 1 822 -6.6 -30.306 1.41999697685242 0.25 0 1
lala 28 0.01875 second second 23 1 826 8 9.758749 3.59999513626099 0.25 1 1
lala 35 0.15 first first 18 1 828 -6.6 -30.156 1.15999722480774 0.25 0 1
lala 29 0.009375 first second 23 1 829 8 9.749374 0.539997816085815 0.25 1 -1
lala 30 0.0046875 first first 23 1 833 8 9.754062 2.47999620437622 0.25 1 1
lala 31 0.00234375 first second 23 1 834 8 9.751718 0.39999794960022 0.25 1 -1
lala 32 0.001171875 first second 23 1 835 8 9.75289 2.33999633789063 0.25 1 -1
lala 33 0.001171875 first first 23 1 838 8 9.754062 1.21999716758728 0.25 1 1
